Blocktype	tnum	rt	color	per	Amb	choice	dist	side	response
Ambiguity	0.0	2581.0	blue	0.5	[0.25,0.75]	risk	narrow	left	f
Ambiguity	1.0	1736.0	blue	0.38	[0.25,0.75]	Ambiguous	narrow	right	f
Ambiguity	2.0	1527.0	blue	0.41	[0.25,0.75]	Ambiguous	narrow	left	j
Ambiguity	3.0	1850.0	blue	0.47	[0.25,0.75]	Ambiguous	narrow	left	j
Ambiguity	4.0	1479.0	blue	0.55	[0.25,0.75]	risk	narrow	right	j
Ambiguity	5.0	1156.0	blue	0.48	[0.25,0.75]	Ambiguous	narrow	right	f
Ambiguity	6.0	1104.0	blue	0.49	[0.25,0.75]	Ambiguous	narrow	right	f
Ambiguity	7.0	1440.0	blue	0.51	[0.25,0.75]	Ambiguous	narrow	left	j
Ambiguity	8.0	1614.0	blue	0.54	[0.25,0.75]	risk	narrow	right	j
Ambiguity	9.0	1025.0	blue	0.51	[0.25,0.75]	Ambiguous	narrow	left	j
Ambiguity	10.0	2032.0	blue	0.53	[0.25,0.75]	Ambiguous	narrow	left	j
Ambiguity	11.0	1042.0	blue	0.55	[0.25,0.75]	risk	narrow	right	j
Ambiguity	12.0	1060.0	blue	0.53	[0.25,0.75]	Ambiguous	narrow	right	f
Ambiguity	13.0	1572.0	blue	0.54	[0.25,0.75]	Ambiguous	narrow	right	f
Ambiguity	14.0	1183.0	blue	0.55	[0.25,0.75]	risk	narrow	right	j
Ambiguity	15.0	1457.0	blue	0.5	[0,1]	risk	narrow	right	j
Ambiguity	16.0	1581.0	blue	0.41	[0,1]	Ambiguous	narrow	left	j
Ambiguity	17.0	1510.0	blue	0.45	[0,1]	Ambiguous	narrow	left	j
Ambiguity	18.0	2088.0	blue	0.51	[0,1]	Ambiguous	narrow	right	f
Ambiguity	19.0	1360.0	blue	0.61	[0,1]	risk	narrow	left	f
Ambiguity	20.0	1197.0	blue	0.55	[0,1]	risk	narrow	right	j
Ambiguity	21.0	1017.0	blue	0.48	[0,1]	Ambiguous	narrow	left	j
Ambiguity	22.0	1299.0	blue	0.53	[0,1]	Ambiguous	narrow	right	f
Ambiguity	23.0	927.0	blue	0.6	[0,1]	risk	narrow	right	j
Ambiguity	24.0	1090.0	blue	0.57	[0,1]	risk	narrow	right	j
Ambiguity	25.0	916.0	blue	0.52	[0,1]	Ambiguous	narrow	right	f
Ambiguity	26.0	1180.0	blue	0.55	[0,1]	risk	narrow	left	f
Ambiguity	27.0	799.0	blue	0.55	[0,1]	risk	narrow	left	f
Ambiguity	28.0	752.0	blue	0.52	[0,1]	Ambiguous	narrow	left	j
Ambiguity	29.0	997.0	blue	0.54	[0,1]	Ambiguous	narrow	right	f
Ambiguity	30.0	2013.0	green	0.5	[0.25,0.75]	risk	wide	left	f
Ambiguity	31.0	1163.0	green	0.38	[0.25,0.75]	Ambiguous	wide	right	f
Ambiguity	32.0	1446.0	green	0.45	[0.25,0.75]	Ambiguous	wide	right	f
Ambiguity	33.0	1350.0	green	0.52	[0.25,0.75]	risk	wide	left	f
Ambiguity	34.0	997.0	green	0.47	[0.25,0.75]	Ambiguous	wide	right	f
Ambiguity	35.0	1255.0	green	0.51	[0.25,0.75]	risk	wide	right	j
Ambiguity	36.0	1324.0	green	0.49	[0.25,0.75]	Ambiguous	wide	right	f
Ambiguity	37.0	970.0	green	0.47	[0.25,0.75]	Ambiguous	wide	left	j
Ambiguity	38.0	991.0	green	0.46	[0.25,0.75]	Ambiguous	wide	right	f
Ambiguity	39.0	871.0	green	0.48	[0.25,0.75]	Ambiguous	wide	right	f
Ambiguity	40.0	1138.0	green	0.51	[0.25,0.75]	risk	wide	left	f
Ambiguity	41.0	847.0	green	0.48	[0.25,0.75]	Ambiguous	wide	left	j
Ambiguity	42.0	683.0	green	0.48	[0.25,0.75]	Ambiguous	wide	left	j
Ambiguity	43.0	1570.0	green	0.5	[0.25,0.75]	Ambiguous	wide	right	f
Ambiguity	44.0	723.0	green	0.48	[0.25,0.75]	Ambiguous	wide	left	j
Ambiguity	45.0	2222.0	green	0.5	[0,1]	risk	wide	right	j
Ambiguity	46.0	887.0	green	0.41	[0,1]	Ambiguous	wide	left	j
Ambiguity	47.0	1133.0	green	0.48	[0,1]	Ambiguous	wide	right	f
Ambiguity	48.0	1224.0	green	0.57	[0,1]	risk	wide	left	f
Ambiguity	49.0	903.0	green	0.54	[0,1]	risk	wide	right	j
Ambiguity	50.0	807.0	green	0.49	[0,1]	Ambiguous	wide	right	f
Ambiguity	51.0	713.0	green	0.49	[0,1]	Ambiguous	wide	right	f
Ambiguity	52.0	892.0	green	0.55	[0,1]	risk	wide	right	j
Ambiguity	53.0	1101.0	green	0.53	[0,1]	risk	wide	left	f
Ambiguity	54.0	625.0	green	0.49	[0,1]	Ambiguous	wide	left	j
Ambiguity	55.0	1112.0	green	0.5	[0,1]	risk	wide	left	f
Ambiguity	56.0	680.0	green	0.47	[0,1]	Ambiguous	wide	left	j
Ambiguity	57.0	862.0	green	0.45	[0,1]	Ambiguous	wide	right	f
Ambiguity	58.0	792.0	green	0.48	[0,1]	Ambiguous	wide	right	f
Ambiguity	59.0	816.0	green	0.51	[0,1]	risk	wide	right	j
Ambiguity	60.0	2334.0	red	0.5	[0.25,0.75]	Ambiguous	skew	right	f
Ambiguity	61.0	1565.0	red	0.58	[0.25,0.75]	risk	skew	right	j
Ambiguity	62.0	1235.0	red	0.53	[0.25,0.75]	risk	skew	right	j
Ambiguity	63.0	894.0	red	0.47	[0.25,0.75]	Ambiguous	skew	right	f
Ambiguity	64.0	866.0	red	0.52	[0.25,0.75]	risk	skew	right	j
Ambiguity	65.0	1039.0	red	0.5	[0.25,0.75]	Ambiguous	skew	right	f
Ambiguity	66.0	1631.0	red	0.49	[0.25,0.75]	Ambiguous	skew	right	f
Ambiguity	67.0	1238.0	red	0.49	[0.25,0.75]	Ambiguous	skew	left	j
Ambiguity	68.0	1076.0	red	0.51	[0.25,0.75]	risk	skew	left	f
Ambiguity	69.0	684.0	red	0.51	[0.25,0.75]	risk	skew	left	f
Ambiguity	70.0	821.0	red	0.5	[0.25,0.75]	Ambiguous	skew	right	f
Ambiguity	71.0	953.0	red	0.52	[0.25,0.75]	risk	skew	left	f
Ambiguity	72.0	708.0	red	0.51	[0.25,0.75]	risk	skew	left	f
Ambiguity	73.0	894.0	red	0.48	[0.25,0.75]	Ambiguous	skew	right	f
Ambiguity	74.0	778.0	red	0.46	[0.25,0.75]	Ambiguous	skew	left	j
Ambiguity	75.0	1307.0	red	0.5	[0,1]	Ambiguous	skew	right	f
Ambiguity	76.0	999.0	red	0.6	[0,1]	risk	skew	right	j
Ambiguity	77.0	848.0	red	0.56	[0,1]	risk	skew	left	f
Ambiguity	78.0	689.0	red	0.48	[0,1]	Ambiguous	skew	left	j
Ambiguity	79.0	929.0	red	0.51	[0,1]	risk	skew	left	f
Ambiguity	80.0	657.0	red	0.48	[0,1]	Ambiguous	skew	left	j
Ambiguity	81.0	879.0	red	0.51	[0,1]	risk	skew	right	j
Ambiguity	82.0	537.0	red	0.49	[0,1]	Ambiguous	skew	left	j
Ambiguity	83.0	572.0	red	0.51	[0,1]	risk	skew	left	f
Ambiguity	84.0	634.0	red	0.49	[0,1]	Ambiguous	skew	right	f
Ambiguity	85.0	657.0	red	0.47	[0,1]	Ambiguous	skew	left	j
Ambiguity	86.0	672.0	red	0.46	[0,1]	Ambiguous	skew	left	j
Ambiguity	87.0	585.0	red	0.47	[0,1]	Ambiguous	skew	left	j
Ambiguity	88.0	784.0	red	0.47	[0,1]	Ambiguous	skew	right	f
Ambiguity	89.0	568.0	red	0.48	[0,1]	Ambiguous	skew	left	j
