Blocktype	tnum	rt	color	per	Amb	RL_feedback	choice	dist	side	response
Learning	1.0	1068.0	green	0.5	[0,1]	win	Amb	norm	left	j
Learning	2.0	2707.0	green	0.57	[0,1]	win	Amb	norm	left	j
Learning	3.0	1740.0	green	0.69	[0,1]	win	risk	norm	right	j
Learning	4.0	2169.0	green	0.6	[0,1]	win	Amb	norm	right	f
Learning	5.0	953.0	green	0.65	[0,1]	win	risk	norm	right	j
Learning	6.0	1564.0	green	0.63	[0,1]	win	risk	norm	right	j
Learning	7.0	1123.0	green	0.61	[0,1]	win	Amb	norm	right	f
Learning	8.0	1466.0	green	0.63	[0,1]	win	risk	norm	left	f
Learning	9.0	1070.0	green	0.6	[0,1]	win	Amb	norm	right	f
Learning	10.0	1310.0	green	0.62	[0,1]	win	Amb	norm	left	j
Learning	11.0	1000.0	green	0.62	[0,1]	win	Amb	norm	right	f
Learning	12.0	2124.0	green	0.65	[0,1]	win	risk	norm	left	f
Learning	13.0	1001.0	green	0.63	[0,1]	win	Amb	norm	right	f
Learning	14.0	1031.0	green	0.63	[0,1]	win	Amb	norm	right	f
Learning	15.0	859.0	green	0.62	[0,1]	win	Amb	norm	left	j
Learning	1.0	837.0	green	0.5	[0,1]	lose	risk	norm	right	j
Learning	2.0	2226.0	green	0.4	[0,1]	lose	risk	norm	left	f
Learning	3.0	1952.0	green	0.25	[0,1]	lose	Amb	norm	left	j
Learning	4.0	1136.0	green	0.3	[0,1]	lose	Amb	norm	right	f
Learning	5.0	1284.0	green	0.4	[0,1]	lose	Amb	norm	left	j
Learning	6.0	959.0	green	0.59	[0,1]	lose	risk	norm	right	j
Learning	7.0	842.0	green	0.5	[0,1]	lose	risk	norm	right	j
Learning	8.0	1002.0	green	0.37	[0,1]	lose	Amb	norm	left	j
Learning	9.0	911.0	green	0.44	[0,1]	lose	Amb	norm	left	j
Learning	10.0	686.0	green	0.52	[0,1]	lose	risk	norm	left	f
Learning	11.0	1058.0	green	0.47	[0,1]	lose	Amb	norm	left	j
Learning	12.0	1035.0	green	0.48	[0,1]	lose	Amb	norm	left	j
Learning	13.0	656.0	green	0.54	[0,1]	lose	risk	norm	left	f
Learning	14.0	580.0	green	0.52	[0,1]	lose	risk	norm	left	f
Learning	15.0	724.0	green	0.5	[0,1]	lose	risk	norm	right	j
Learning	1.0	1295.0	red	0.5	[0,1]	win	Amb	norm	right	f
Learning	2.0	1000.0	red	0.58	[0,1]	win	risk	norm	right	j
Learning	3.0	1085.0	red	0.54	[0,1]	win	risk	norm	left	f
Learning	4.0	1084.0	red	0.48	[0,1]	win	Amb	norm	left	j
Learning	5.0	1179.0	red	0.51	[0,1]	win	Amb	norm	left	j
Learning	6.0	817.0	red	0.54	[0,1]	win	risk	norm	left	f
Learning	7.0	884.0	red	0.5	[0,1]	win	Amb	norm	right	f
Learning	8.0	820.0	red	0.49	[0,1]	win	Amb	norm	right	f
Learning	9.0	856.0	red	0.5	[0,1]	win	Amb	norm	right	f
Learning	10.0	966.0	red	0.53	[0,1]	win	Amb	norm	left	j
Learning	11.0	715.0	red	0.58	[0,1]	win	risk	norm	right	j
Learning	12.0	659.0	red	0.55	[0,1]	win	risk	norm	right	j
Learning	13.0	701.0	red	0.52	[0,1]	win	Amb	norm	right	f
Learning	14.0	1032.0	red	0.54	[0,1]	win	risk	norm	left	f
Learning	15.0	845.0	red	0.53	[0,1]	win	Amb	norm	right	f
Learning	1.0	1335.0	red	0.5	[0,1]	lose	risk	norm	left	f
Learning	2.0	834.0	red	0.39	[0,1]	lose	Amb	norm	left	j
Learning	3.0	788.0	red	0.43	[0,1]	lose	Amb	norm	left	j
Learning	4.0	829.0	red	0.52	[0,1]	lose	risk	norm	right	j
Learning	5.0	1035.0	red	0.49	[0,1]	lose	Amb	norm	left	j
Learning	6.0	885.0	red	0.48	[0,1]	lose	Amb	norm	right	f
Learning	7.0	727.0	red	0.53	[0,1]	lose	risk	norm	right	j
Learning	8.0	625.0	red	0.53	[0,1]	lose	risk	norm	right	j
Learning	9.0	752.0	red	0.5	[0,1]	lose	risk	norm	right	j
Learning	10.0	690.0	red	0.47	[0,1]	lose	Amb	norm	right	f
Learning	11.0	704.0	red	0.49	[0,1]	lose	Amb	norm	right	f
Learning	12.0	782.0	red	0.49	[0,1]	lose	Amb	norm	left	j
Learning	13.0	583.0	red	0.55	[0,1]	lose	risk	norm	left	f
Learning	14.0	487.0	red	0.54	[0,1]	lose	risk	norm	left	f
Learning	15.0	677.0	red	0.51	[0,1]	lose	risk	norm	right	j
Learning	1.0	1178.0	blue	0.5	[0,1]	win	Amb	norm	right	f
Learning	2.0	1181.0	blue	0.59	[0,1]	win	risk	norm	left	f
Learning	3.0	1256.0	blue	0.55	[0,1]	win	risk	norm	left	f
Learning	4.0	856.0	blue	0.47	[0,1]	win	Amb	norm	right	f
Learning	5.0	820.0	blue	0.48	[0,1]	win	Amb	norm	right	f
Learning	6.0	896.0	blue	0.53	[0,1]	win	Amb	norm	right	f
Learning	7.0	1383.0	blue	0.62	[0,1]	win	risk	norm	left	f
Learning	8.0	1371.0	blue	0.59	[0,1]	win	risk	norm	right	j
Learning	9.0	985.0	blue	0.52	[0,1]	win	Amb	norm	left	j
Learning	10.0	873.0	blue	0.53	[0,1]	win	Amb	norm	right	f
Learning	11.0	1573.0	blue	0.56	[0,1]	win	risk	norm	right	j
Learning	12.0	1017.0	blue	0.55	[0,1]	win	risk	norm	right	j
Learning	13.0	931.0	blue	0.49	[0,1]	win	Amb	norm	left	j
Learning	14.0	846.0	blue	0.53	[0,1]	win	Amb	norm	left	j
Learning	15.0	594.0	blue	0.53	[0,1]	win	Amb	norm	left	j
Learning	1.0	1206.0	blue	0.5	[0,1]	lose	risk	norm	right	j
Learning	2.0	1178.0	blue	0.39	[0,1]	lose	Amb	norm	left	j
Learning	3.0	1022.0	blue	0.46	[0,1]	lose	Amb	norm	right	f
Learning	4.0	1089.0	blue	0.51	[0,1]	lose	risk	norm	right	j
Learning	5.0	726.0	blue	0.45	[0,1]	lose	Amb	norm	right	f
Learning	6.0	771.0	blue	0.49	[0,1]	lose	Amb	norm	right	f
Learning	7.0	967.0	blue	0.49	[0,1]	lose	Amb	norm	left	j
Learning	8.0	940.0	blue	0.52	[0,1]	lose	risk	norm	left	f
Learning	9.0	855.0	blue	0.51	[0,1]	lose	risk	norm	right	j
Learning	10.0	907.0	blue	0.48	[0,1]	lose	Amb	norm	right	f
Learning	11.0	948.0	blue	0.48	[0,1]	lose	Amb	norm	left	j
Learning	12.0	996.0	blue	0.5	[0,1]	lose	risk	norm	left	f
Learning	13.0	707.0	blue	0.49	[0,1]	lose	Amb	norm	left	j
Learning	14.0	752.0	blue	0.49	[0,1]	lose	Amb	norm	left	j
Learning	15.0	836.0	blue	0.48	[0,1]	lose	Amb	norm	right	f
