Blocktype	tnum	rt	color	per	Amb	choice	dist	side	response
Ambiguity	0.0	940.0	red	0.5	[0.25,0.75]	risk	narrow	right	j
Ambiguity	1.0	1368.0	red	0.39	[0.25,0.75]	Ambiguous	narrow	right	f
Ambiguity	2.0	3097.0	red	0.45	[0.25,0.75]	Ambiguous	narrow	right	f
Ambiguity	3.0	1268.0	red	0.52	[0.25,0.75]	risk	narrow	left	f
Ambiguity	4.0	1477.0	red	0.49	[0.25,0.75]	Ambiguous	narrow	left	j
Ambiguity	5.0	1309.0	red	0.48	[0.25,0.75]	Ambiguous	narrow	right	f
Ambiguity	6.0	896.0	red	0.51	[0.25,0.75]	risk	narrow	right	j
Ambiguity	7.0	809.0	red	0.5	[0.25,0.75]	risk	narrow	right	j
Ambiguity	8.0	906.0	red	0.47	[0.25,0.75]	Ambiguous	narrow	left	j
Ambiguity	9.0	824.0	red	0.45	[0.25,0.75]	Ambiguous	narrow	left	j
Ambiguity	10.0	1087.0	red	0.45	[0.25,0.75]	Ambiguous	narrow	left	j
Ambiguity	11.0	831.0	red	0.47	[0.25,0.75]	Ambiguous	narrow	left	j
Ambiguity	12.0	1183.0	red	0.51	[0.25,0.75]	risk	narrow	left	f
Ambiguity	13.0	874.0	red	0.48	[0.25,0.75]	Ambiguous	narrow	left	j
Ambiguity	14.0	877.0	red	0.49	[0.25,0.75]	Ambiguous	narrow	left	j
Ambiguity	15.0	831.0	red	0.5	[0,1]	risk	narrow	left	f
Ambiguity	16.0	1118.0	red	0.38	[0,1]	Ambiguous	narrow	left	j
Ambiguity	17.0	2089.0	red	0.4	[0,1]	Ambiguous	narrow	right	f
Ambiguity	18.0	1634.0	red	0.48	[0,1]	Ambiguous	narrow	right	f
Ambiguity	19.0	693.0	red	0.61	[0,1]	risk	narrow	left	f
Ambiguity	20.0	647.0	red	0.54	[0,1]	risk	narrow	left	f
Ambiguity	21.0	1112.0	red	0.46	[0,1]	Ambiguous	narrow	right	f
Ambiguity	22.0	716.0	red	0.47	[0,1]	Ambiguous	narrow	left	j
Ambiguity	23.0	712.0	red	0.52	[0,1]	risk	narrow	right	j
Ambiguity	24.0	620.0	red	0.47	[0,1]	Ambiguous	narrow	right	f
Ambiguity	25.0	641.0	red	0.47	[0,1]	Ambiguous	narrow	right	f
Ambiguity	26.0	595.0	red	0.47	[0,1]	Ambiguous	narrow	left	j
Ambiguity	27.0	555.0	red	0.52	[0,1]	risk	narrow	right	j
Ambiguity	28.0	861.0	red	0.49	[0,1]	Ambiguous	narrow	left	j
Ambiguity	29.0	844.0	red	0.51	[0,1]	risk	narrow	left	f
Ambiguity	30.0	1605.0	blue	0.5	[0.25,0.75]	risk	skew	right	j
Ambiguity	31.0	695.0	blue	0.4	[0.25,0.75]	Ambiguous	skew	right	f
Ambiguity	32.0	1883.0	blue	0.47	[0.25,0.75]	Ambiguous	skew	left	j
Ambiguity	33.0	1254.0	blue	0.56	[0.25,0.75]	risk	skew	left	f
Ambiguity	34.0	693.0	blue	0.53	[0.25,0.75]	risk	skew	left	f
Ambiguity	35.0	682.0	blue	0.45	[0.25,0.75]	Ambiguous	skew	left	j
Ambiguity	36.0	245.0	blue	0.46	[0.25,0.75]	risk	skew	left	f
Ambiguity	37.0		blue	0.45	[0.25,0.75]	Ambiguous	skew	left	
Ambiguity	38.0		blue	0.46	[0.25,0.75]	Ambiguous	skew	left	
Ambiguity	39.0	1199.0	blue	0.48	[0.25,0.75]	Ambiguous	skew	right	f
Ambiguity	40.0	624.0	blue	0.51	[0.25,0.75]	risk	skew	left	f
Ambiguity	41.0	1153.0	blue	0.49	[0.25,0.75]	Ambiguous	skew	left	j
Ambiguity	42.0	1632.0	blue	0.48	[0.25,0.75]	risk	skew	right	j
Ambiguity	43.0	2460.0	blue	0.49	[0.25,0.75]	Ambiguous	skew	left	j
Ambiguity	44.0	1297.0	blue	0.49	[0.25,0.75]	Ambiguous	skew	left	j
Ambiguity	45.0	1064.0	blue	0.5	[0,1]	risk	skew	right	j
Ambiguity	46.0	3011.0	blue	0.39	[0,1]	Ambiguous	skew	right	f
Ambiguity	47.0	692.0	blue	0.42	[0,1]	Ambiguous	skew	right	f
Ambiguity	48.0	1673.0	blue	0.49	[0,1]	Ambiguous	skew	right	f
Ambiguity	49.0	664.0	blue	0.57	[0,1]	risk	skew	left	f
Ambiguity	50.0	864.0	blue	0.52	[0,1]	risk	skew	left	f
Ambiguity	51.0	1003.0	blue	0.45	[0,1]	Ambiguous	skew	right	f
Ambiguity	52.0	553.0	blue	0.46	[0,1]	Ambiguous	skew	right	f
Ambiguity	53.0	988.0	blue	0.54	[0,1]	risk	skew	left	f
Ambiguity	54.0	660.0	blue	0.51	[0,1]	risk	skew	right	j
Ambiguity	55.0	755.0	blue	0.46	[0,1]	Ambiguous	skew	right	f
Ambiguity	56.0	1394.0	blue	0.48	[0,1]	Ambiguous	skew	right	f
Ambiguity	57.0	570.0	blue	0.52	[0,1]	risk	skew	right	j
Ambiguity	58.0	862.0	blue	0.48	[0,1]	Ambiguous	skew	left	j
Ambiguity	59.0	661.0	blue	0.49	[0,1]	Ambiguous	skew	left	j
Ambiguity	60.0	1435.0	green	0.5	[0.25,0.75]	risk	wide	right	j
Ambiguity	61.0	1468.0	green	0.4	[0.25,0.75]	risk	wide	right	j
Ambiguity	62.0	2096.0	green	0.25	[0.25,0.75]	Ambiguous	wide	left	j
Ambiguity	63.0	1830.0	green	0.34	[0.25,0.75]	risk	wide	right	j
Ambiguity	64.0	1156.0	green	0.29	[0.25,0.75]	Ambiguous	wide	right	f
Ambiguity	65.0	1575.0	green	0.28	[0.25,0.75]	Ambiguous	wide	right	f
Ambiguity	66.0	1311.0	green	0.28	[0.25,0.75]	Ambiguous	wide	left	j
Ambiguity	67.0	1018.0	green	0.33	[0.25,0.75]	risk	wide	right	j
Ambiguity	68.0	1241.0	green	0.32	[0.25,0.75]	risk	wide	right	j
Ambiguity	69.0	1000.0	green	0.3	[0.25,0.75]	risk	wide	right	j
Ambiguity	70.0	767.0	green	0.24	[0.25,0.75]	Ambiguous	wide	right	f
Ambiguity	71.0	552.0	green	0.27	[0.25,0.75]	Ambiguous	wide	right	f
Ambiguity	72.0	859.0	green	0.31	[0.25,0.75]	risk	wide	right	j
Ambiguity	73.0	1153.0	green	0.29	[0.25,0.75]	Ambiguous	wide	left	j
Ambiguity	74.0	956.0	green	0.28	[0.25,0.75]	Ambiguous	wide	left	j
Ambiguity	75.0	811.0	green	0.5	[0,1]	risk	wide	right	j
Ambiguity	76.0	1090.0	green	0.38	[0,1]	risk	wide	left	f
Ambiguity	77.0	1174.0	green	0.22	[0,1]	Ambiguous	wide	right	f
Ambiguity	78.0	1212.0	green	0.27	[0,1]	Ambiguous	wide	right	f
Ambiguity	79.0	789.0	green	0.39	[0,1]	risk	wide	left	f
Ambiguity	80.0	691.0	green	0.31	[0,1]	risk	wide	right	j
Ambiguity	81.0	823.0	green	0.21	[0,1]	Ambiguous	wide	left	j
Ambiguity	82.0	782.0	green	0.27	[0,1]	Ambiguous	wide	left	j
Ambiguity	83.0	849.0	green	0.35	[0,1]	risk	wide	right	j
Ambiguity	84.0	683.0	green	0.33	[0,1]	risk	wide	left	f
Ambiguity	85.0	765.0	green	0.28	[0,1]	Ambiguous	wide	left	j
Ambiguity	86.0	859.0	green	0.32	[0,1]	risk	wide	left	f
Ambiguity	87.0	778.0	green	0.29	[0,1]	Ambiguous	wide	left	j
Ambiguity	88.0	945.0	green	0.27	[0,1]	Ambiguous	wide	right	f
Ambiguity	89.0	749.0	green	0.29	[0,1]	Ambiguous	wide	left	j
