Blocktype	tnum	rt	color	per	Amb	RL_feedback	choice	dist	side	response
Learning	1.0	1483.0	red	0.5	[0,1]	win	risk	norm	right	j
Learning	2.0	1083.0	red	0.38	[0,1]	win	Amb	norm	left	j
Learning	3.0	1034.0	red	0.44	[0,1]	win	Amb	norm	right	f
Learning	4.0	832.0	red	0.53	[0,1]	win	risk	norm	left	f
Learning	5.0	729.0	red	0.48	[0,1]	win	Amb	norm	left	j
Learning	6.0	665.0	red	0.5	[0,1]	win	risk	norm	left	f
Learning	7.0	613.0	red	0.5	[0,1]	win	risk	norm	right	j
Learning	8.0	843.0	red	0.49	[0,1]	win	Amb	norm	right	f
Learning	9.0	523.0	red	0.52	[0,1]	win	risk	norm	right	j
Learning	10.0	656.0	red	0.53	[0,1]	win	risk	norm	right	j
Learning	11.0	624.0	red	0.52	[0,1]	win	risk	norm	right	j
Learning	12.0	739.0	red	0.5	[0,1]	win	risk	norm	right	j
Learning	13.0	794.0	red	0.47	[0,1]	win	Amb	norm	left	j
Learning	14.0	762.0	red	0.47	[0,1]	win	Amb	norm	left	j
Learning	15.0	968.0	red	0.49	[0,1]	win	Amb	norm	left	j
Learning	1.0	747.0	red	0.5	[0,1]	lose	risk	norm	right	j
Learning	2.0	628.0	red	0.39	[0,1]	lose	Amb	norm	right	f
Learning	3.0	647.0	red	0.43	[0,1]	lose	Amb	norm	right	f
Learning	4.0	480.0	red	0.53	[0,1]	lose	risk	norm	right	j
Learning	5.0	851.0	red	0.47	[0,1]	lose	Amb	norm	right	f
Learning	6.0	521.0	red	0.51	[0,1]	lose	risk	norm	right	j
Learning	7.0	1225.0	red	0.48	[0,1]	lose	Amb	norm	left	j
Learning	8.0	931.0	red	0.48	[0,1]	lose	Amb	norm	right	f
Learning	9.0	1044.0	red	0.49	[0,1]	lose	Amb	norm	left	j
Learning	10.0	576.0	red	0.48	[0,1]	lose	Amb	norm	left	j
Learning	11.0	1280.0	red	0.47	[0,1]	lose	Amb	norm	right	f
Learning	12.0	900.0	red	0.49	[0,1]	lose	Amb	norm	left	j
Learning	13.0	629.0	red	0.5	[0,1]	lose	risk	norm	left	f
Learning	14.0	1139.0	red	0.46	[0,1]	lose	Amb	norm	right	f
Learning	15.0	720.0	red	0.46	[0,1]	lose	Amb	norm	left	j
Learning	1.0	1107.0	green	0.5	[0,1]	lose	risk	norm	left	f
Learning	2.0	1999.0	green	0.4	[0,1]	lose	risk	norm	right	j
Learning	3.0	1429.0	green	0.26	[0,1]	lose	Amb	norm	left	j
Learning	4.0	1427.0	green	0.31	[0,1]	lose	Amb	norm	left	j
Learning	5.0	682.0	green	0.4	[0,1]	lose	risk	norm	left	f
Learning	6.0	1004.0	green	0.32	[0,1]	lose	Amb	norm	left	j
Learning	7.0	852.0	green	0.32	[0,1]	lose	Amb	norm	left	j
Learning	8.0	1273.0	green	0.33	[0,1]	lose	Amb	norm	left	j
Learning	9.0	591.0	green	0.41	[0,1]	lose	risk	norm	left	f
Learning	10.0	759.0	green	0.37	[0,1]	lose	Amb	norm	left	j
Learning	11.0	537.0	green	0.41	[0,1]	lose	risk	norm	left	f
Learning	12.0	728.0	green	0.4	[0,1]	lose	risk	norm	right	j
Learning	13.0	914.0	green	0.39	[0,1]	lose	risk	norm	left	f
Learning	14.0	679.0	green	0.35	[0,1]	lose	Amb	norm	left	j
Learning	15.0	730.0	green	0.34	[0,1]	lose	Amb	norm	left	j
Learning	1.0	863.0	blue	0.5	[0,1]	win	risk	norm	right	j
Learning	2.0	840.0	blue	0.4	[0,1]	win	Amb	norm	right	f
Learning	3.0	1372.0	blue	0.47	[0,1]	win	Amb	norm	right	f
Learning	4.0	1257.0	blue	0.54	[0,1]	win	risk	norm	left	f
Learning	5.0	843.0	blue	0.5	[0,1]	win	risk	norm	left	f
Learning	6.0	1064.0	blue	0.44	[0,1]	win	Amb	norm	right	f
Learning	7.0	777.0	blue	0.46	[0,1]	win	Amb	norm	left	j
Learning	8.0	761.0	blue	0.49	[0,1]	win	Amb	norm	left	j
Learning	9.0	845.0	blue	0.53	[0,1]	win	risk	norm	left	f
Learning	10.0	886.0	blue	0.49	[0,1]	win	Amb	norm	right	f
Learning	11.0	911.0	blue	0.5	[0,1]	win	risk	norm	right	j
Learning	12.0	667.0	blue	0.48	[0,1]	win	Amb	norm	left	j
Learning	13.0	837.0	blue	0.47	[0,1]	win	Amb	norm	left	j
Learning	14.0	787.0	blue	0.5	[0,1]	win	risk	norm	right	j
Learning	15.0	779.0	blue	0.51	[0,1]	win	risk	norm	left	f
Learning	1.0	976.0	green	0.5	[0,1]	win	risk	norm	right	j
Learning	2.0	716.0	green	0.38	[0,1]	win	Amb	norm	left	j
Learning	3.0	688.0	green	0.41	[0,1]	win	Amb	norm	right	f
Learning	4.0	683.0	green	0.46	[0,1]	win	Amb	norm	right	f
Learning	5.0	1114.0	green	0.55	[0,1]	win	risk	norm	left	f
Learning	6.0	1058.0	green	0.48	[0,1]	win	risk	norm	right	j
Learning	7.0	853.0	green	0.41	[0,1]	win	risk	norm	left	f
Learning	8.0	665.0	green	0.27	[0,1]	win	Amb	norm	left	j
Learning	9.0	885.0	green	0.33	[0,1]	win	Amb	norm	left	j
Learning	10.0	704.0	green	0.41	[0,1]	win	risk	norm	left	f
Learning	11.0	881.0	green	0.37	[0,1]	win	Amb	norm	right	f
Learning	12.0	876.0	green	0.41	[0,1]	win	risk	norm	left	f
Learning	13.0	754.0	green	0.4	[0,1]	win	risk	norm	left	f
Learning	14.0	805.0	green	0.39	[0,1]	win	risk	norm	right	j
Learning	15.0	731.0	green	0.35	[0,1]	win	Amb	norm	left	j
Learning	1.0	866.0	blue	0.5	[0,1]	lose	risk	norm	right	j
Learning	2.0	1169.0	blue	0.39	[0,1]	lose	Amb	norm	left	j
Learning	3.0	643.0	blue	0.42	[0,1]	lose	Amb	norm	left	j
Learning	4.0	777.0	blue	0.46	[0,1]	lose	Amb	norm	left	j
Learning	5.0	814.0	blue	0.56	[0,1]	lose	risk	norm	right	j
Learning	6.0	1046.0	blue	0.49	[0,1]	lose	Amb	norm	left	j
Learning	7.0	833.0	blue	0.54	[0,1]	lose	risk	norm	right	j
Learning	8.0	816.0	blue	0.54	[0,1]	lose	risk	norm	right	j
Learning	9.0	951.0	blue	0.5	[0,1]	lose	risk	norm	right	j
Learning	10.0	754.0	blue	0.46	[0,1]	lose	Amb	norm	left	j
Learning	11.0	958.0	blue	0.45	[0,1]	lose	Amb	norm	left	j
Learning	12.0	984.0	blue	0.48	[0,1]	lose	Amb	norm	right	f
Learning	13.0	830.0	blue	0.51	[0,1]	lose	risk	norm	left	f
Learning	14.0	775.0	blue	0.48	[0,1]	lose	Amb	norm	left	j
Learning	15.0	772.0	blue	0.49	[0,1]	lose	Amb	norm	right	f
