Blocktype	tnum	rt	color	per	Amb	choice	dist	side	response
Ambiguity	0.0	3132.0	blue	0.5	[0.25,0.75]	risk	skew	left	f
Ambiguity	1.0	2499.0	blue	0.41	[0.25,0.75]	Ambiguous	skew	left	j
Ambiguity	2.0	2702.0	blue	0.46	[0.25,0.75]	Ambiguous	skew	right	f
Ambiguity	3.0	2313.0	blue	0.53	[0.25,0.75]	Ambiguous	skew	left	j
Ambiguity	4.0	1030.0	blue	0.65	[0.25,0.75]	risk	skew	right	j
Ambiguity	5.0	1394.0	blue	0.59	[0.25,0.75]	Ambiguous	skew	left	j
Ambiguity	6.0	1239.0	blue	0.62	[0.25,0.75]	risk	skew	left	f
Ambiguity	7.0	1491.0	blue	0.59	[0.25,0.75]	Ambiguous	skew	right	f
Ambiguity	8.0	1359.0	blue	0.6	[0.25,0.75]	risk	skew	left	f
Ambiguity	9.0	1961.0	blue	0.59	[0.25,0.75]	risk	skew	left	f
Ambiguity	10.0	1552.0	blue	0.58	[0.25,0.75]	Ambiguous	skew	right	f
Ambiguity	11.0	1469.0	blue	0.59	[0.25,0.75]	Ambiguous	skew	right	f
Ambiguity	12.0	2295.0	blue	0.6	[0.25,0.75]	risk	skew	left	f
Ambiguity	13.0	1150.0	blue	0.58	[0.25,0.75]	Ambiguous	skew	right	f
Ambiguity	14.0	1101.0	blue	0.55	[0.25,0.75]	Ambiguous	skew	left	j
Ambiguity	15.0	2286.0	blue	0.5	[0,1]	Ambiguous	skew	left	j
Ambiguity	16.0	819.0	blue	0.59	[0,1]	risk	skew	right	j
Ambiguity	17.0	1003.0	blue	0.55	[0,1]	Ambiguous	skew	right	f
Ambiguity	18.0	976.0	blue	0.59	[0,1]	Ambiguous	skew	right	f
Ambiguity	19.0	1519.0	blue	0.64	[0,1]	risk	skew	left	f
Ambiguity	20.0	1451.0	blue	0.6	[0,1]	Ambiguous	skew	right	f
Ambiguity	21.0	1925.0	blue	0.6	[0,1]	Ambiguous	skew	left	j
Ambiguity	22.0	1727.0	blue	0.59	[0,1]	Ambiguous	skew	left	j
Ambiguity	23.0	1440.0	blue	0.6	[0,1]	Ambiguous	skew	left	j
Ambiguity	24.0	848.0	blue	0.61	[0,1]	Ambiguous	skew	left	j
Ambiguity	25.0	1592.0	blue	0.67	[0,1]	risk	skew	right	j
Ambiguity	26.0	671.0	blue	0.66	[0,1]	risk	skew	right	j
Ambiguity	27.0	2522.0	blue	0.63	[0,1]	Ambiguous	skew	left	j
Ambiguity	28.0	998.0	blue	0.63	[0,1]	risk	skew	left	f
Ambiguity	29.0	1532.0	blue	0.62	[0,1]	Ambiguous	skew	right	f
Ambiguity	30.0	2544.0	red	0.5	[0.25,0.75]	risk	narrow	left	f
Ambiguity	31.0	1637.0	red	0.39	[0.25,0.75]	Ambiguous	narrow	right	f
Ambiguity	32.0	2140.0	red	0.43	[0.25,0.75]	risk	narrow	left	f
Ambiguity	33.0	2159.0	red	0.4	[0.25,0.75]	Ambiguous	narrow	right	f
Ambiguity	34.0	1177.0	red	0.38	[0.25,0.75]	Ambiguous	narrow	left	j
Ambiguity	35.0	1099.0	red	0.39	[0.25,0.75]	Ambiguous	narrow	right	f
Ambiguity	36.0	1534.0	red	0.44	[0.25,0.75]	Ambiguous	narrow	left	j
Ambiguity	37.0	1169.0	red	0.47	[0.25,0.75]	risk	narrow	left	f
Ambiguity	38.0	819.0	red	0.43	[0.25,0.75]	risk	narrow	right	j
Ambiguity	39.0	1602.0	red	0.41	[0.25,0.75]	Ambiguous	narrow	left	j
Ambiguity	40.0	829.0	red	0.4	[0.25,0.75]	Ambiguous	narrow	right	f
Ambiguity	41.0	697.0	red	0.41	[0.25,0.75]	Ambiguous	narrow	right	f
Ambiguity	42.0	1379.0	red	0.44	[0.25,0.75]	Ambiguous	narrow	left	j
Ambiguity	43.0	688.0	red	0.48	[0.25,0.75]	risk	narrow	right	j
Ambiguity	44.0	715.0	red	0.46	[0.25,0.75]	risk	narrow	right	j
Ambiguity	45.0	1333.0	red	0.5	[0,1]	risk	narrow	left	f
Ambiguity	46.0	1188.0	red	0.4	[0,1]	Ambiguous	narrow	right	f
Ambiguity	47.0	1443.0	red	0.44	[0,1]	Ambiguous	narrow	left	j
Ambiguity	48.0	1213.0	red	0.53	[0,1]	risk	narrow	right	j
Ambiguity	49.0	682.0	red	0.5	[0,1]	risk	narrow	right	j
Ambiguity	50.0	1222.0	red	0.42	[0,1]	Ambiguous	narrow	left	j
Ambiguity	51.0	1153.0	red	0.46	[0,1]	risk	narrow	left	f
Ambiguity	52.0	517.0	red	0.46	[0,1]	risk	narrow	left	f
Ambiguity	53.0	1589.0	red	0.45	[0,1]	risk	narrow	right	j
Ambiguity	54.0	646.0	red	0.42	[0,1]	Ambiguous	narrow	right	f
Ambiguity	55.0	1040.0	red	0.43	[0,1]	Ambiguous	narrow	left	j
Ambiguity	56.0	1493.0	red	0.45	[0,1]	risk	narrow	left	f
Ambiguity	57.0	805.0	red	0.45	[0,1]	risk	narrow	right	j
Ambiguity	58.0	964.0	red	0.43	[0,1]	Ambiguous	narrow	left	j
Ambiguity	59.0	807.0	red	0.42	[0,1]	Ambiguous	narrow	right	f
Ambiguity	60.0	1818.0	green	0.5	[0.25,0.75]	risk	wide	left	f
Ambiguity	61.0	2356.0	green	0.39	[0.25,0.75]	risk	wide	left	f
Ambiguity	62.0	560.0	green	0.22	[0.25,0.75]	Ambiguous	wide	left	j
Ambiguity	63.0	1486.0	green	0.3	[0.25,0.75]	Ambiguous	wide	left	j
Ambiguity	64.0	1288.0	green	0.43	[0.25,0.75]	risk	wide	right	j
Ambiguity	65.0	1623.0	green	0.37	[0.25,0.75]	Ambiguous	wide	left	j
Ambiguity	66.0	1022.0	green	0.42	[0.25,0.75]	risk	wide	right	j
Ambiguity	67.0	1633.0	green	0.4	[0.25,0.75]	risk	wide	right	j
Ambiguity	68.0	850.0	green	0.39	[0.25,0.75]	risk	wide	right	j
Ambiguity	69.0	605.0	green	0.36	[0.25,0.75]	Ambiguous	wide	right	f
Ambiguity	70.0	642.0	green	0.39	[0.25,0.75]	risk	wide	right	j
Ambiguity	71.0	861.0	green	0.39	[0.25,0.75]	risk	wide	left	f
Ambiguity	72.0	2029.0	green	0.37	[0.25,0.75]	Ambiguous	wide	right	f
Ambiguity	73.0	739.0	green	0.37	[0.25,0.75]	Ambiguous	wide	right	f
Ambiguity	74.0	1289.0	green	0.39	[0.25,0.75]	risk	wide	left	f
Ambiguity	75.0	993.0	green	0.5	[0,1]	risk	wide	right	j
Ambiguity	76.0	957.0	green	0.38	[0,1]	Ambiguous	wide	left	j
Ambiguity	77.0	950.0	green	0.43	[0,1]	risk	wide	left	f
Ambiguity	78.0	743.0	green	0.38	[0,1]	Ambiguous	wide	left	j
Ambiguity	79.0	991.0	green	0.36	[0,1]	Ambiguous	wide	right	f
Ambiguity	80.0	923.0	green	0.35	[0,1]	Ambiguous	wide	left	j
Ambiguity	81.0	1168.0	green	0.4	[0,1]	risk	wide	right	j
Ambiguity	82.0	464.0	green	0.4	[0,1]	risk	wide	right	j
Ambiguity	83.0	1006.0	green	0.37	[0,1]	Ambiguous	wide	left	j
Ambiguity	84.0	1028.0	green	0.35	[0,1]	Ambiguous	wide	left	j
Ambiguity	85.0	915.0	green	0.37	[0,1]	Ambiguous	wide	left	j
Ambiguity	86.0	1146.0	green	0.36	[0,1]	Ambiguous	wide	right	f
Ambiguity	87.0	1362.0	green	0.39	[0,1]	Ambiguous	wide	right	f
Ambiguity	88.0	530.0	green	0.44	[0,1]	risk	wide	right	j
Ambiguity	89.0	614.0	green	0.39	[0,1]	Ambiguous	wide	right	f
