Blocktype	tnum	rt	color	per	Amb	choice	dist	side	response
Ambiguity	0.0	1451.0	green	0.5	[0.25,0.75]	risk	narrow	left	f
Ambiguity	1.0	2023.0	green	0.41	[0.25,0.75]	risk	narrow	left	f
Ambiguity	2.0	2365.0	green	0.26	[0.25,0.75]	Ambiguous	narrow	left	j
Ambiguity	3.0	1458.0	green	0.32	[0.25,0.75]	Ambiguous	narrow	left	j
Ambiguity	4.0	2282.0	green	0.44	[0.25,0.75]	Ambiguous	narrow	right	f
Ambiguity	5.0	1418.0	green	0.61	[0.25,0.75]	risk	narrow	right	j
Ambiguity	6.0	1535.0	green	0.52	[0.25,0.75]	risk	narrow	right	j
Ambiguity	7.0	1247.0	green	0.4	[0.25,0.75]	Ambiguous	narrow	right	f
Ambiguity	8.0	2453.0	green	0.46	[0.25,0.75]	Ambiguous	narrow	left	j
Ambiguity	9.0	2562.0	green	0.56	[0.25,0.75]	risk	narrow	right	j
Ambiguity	10.0	1298.0	green	0.51	[0.25,0.75]	risk	narrow	right	j
Ambiguity	11.0	983.0	green	0.44	[0.25,0.75]	Ambiguous	narrow	right	f
Ambiguity	12.0	632.0	green	0.47	[0.25,0.75]	Ambiguous	narrow	right	f
Ambiguity	13.0	1054.0	green	0.51	[0.25,0.75]	risk	narrow	right	j
Ambiguity	14.0	1194.0	green	0.49	[0.25,0.75]	Ambiguous	narrow	right	f
Ambiguity	15.0	2436.0	green	0.5	[0,1]	risk	narrow	right	j
Ambiguity	16.0	1260.0	green	0.4	[0,1]	Ambiguous	narrow	right	f
Ambiguity	17.0	959.0	green	0.45	[0,1]	Ambiguous	narrow	left	j
Ambiguity	18.0	1640.0	green	0.51	[0,1]	risk	narrow	left	f
Ambiguity	19.0	1233.0	green	0.47	[0,1]	Ambiguous	narrow	left	j
Ambiguity	20.0	1894.0	green	0.5	[0,1]	risk	narrow	left	f
Ambiguity	21.0	1977.0	green	0.5	[0,1]	risk	narrow	left	f
Ambiguity	22.0	1194.0	green	0.49	[0,1]	Ambiguous	narrow	right	f
Ambiguity	23.0	932.0	green	0.47	[0,1]	Ambiguous	narrow	right	f
Ambiguity	24.0	1059.0	green	0.45	[0,1]	Ambiguous	narrow	right	f
Ambiguity	25.0	1276.0	green	0.45	[0,1]	Ambiguous	narrow	right	f
Ambiguity	26.0	1223.0	green	0.45	[0,1]	Ambiguous	narrow	left	j
Ambiguity	27.0	1150.0	green	0.49	[0,1]	Ambiguous	narrow	right	f
Ambiguity	28.0	925.0	green	0.54	[0,1]	risk	narrow	left	f
Ambiguity	29.0	975.0	green	0.5	[0,1]	risk	narrow	left	f
Ambiguity	30.0	2434.0	blue	0.5	[0.25,0.75]	Ambiguous	wide	left	j
Ambiguity	31.0	2016.0	blue	0.58	[0.25,0.75]	Ambiguous	wide	left	j
Ambiguity	32.0	853.0	blue	0.74	[0.25,0.75]	risk	wide	left	f
Ambiguity	33.0	1262.0	blue	0.65	[0.25,0.75]	risk	wide	left	f
Ambiguity	34.0	1425.0	blue	0.55	[0.25,0.75]	Ambiguous	wide	right	f
Ambiguity	35.0	1241.0	blue	0.63	[0.25,0.75]	Ambiguous	wide	right	f
Ambiguity	36.0	1281.0	blue	0.7	[0.25,0.75]	risk	wide	left	f
Ambiguity	37.0	1419.0	blue	0.65	[0.25,0.75]	risk	wide	right	j
Ambiguity	38.0	1478.0	blue	0.57	[0.25,0.75]	Ambiguous	wide	left	j
Ambiguity	39.0	1901.0	blue	0.6	[0.25,0.75]	Ambiguous	wide	right	f
Ambiguity	40.0	1348.0	blue	0.65	[0.25,0.75]	risk	wide	left	f
Ambiguity	41.0	1556.0	blue	0.64	[0.25,0.75]	risk	wide	left	f
Ambiguity	42.0	710.0	blue	0.58	[0.25,0.75]	Ambiguous	wide	left	j
Ambiguity	43.0	1163.0	blue	0.58	[0.25,0.75]	Ambiguous	wide	right	f
Ambiguity	44.0	1023.0	blue	0.62	[0.25,0.75]	risk	wide	left	f
Ambiguity	45.0	1442.0	blue	0.5	[0,1]	Ambiguous	wide	left	j
Ambiguity	46.0	713.0	blue	0.61	[0,1]	risk	wide	left	f
Ambiguity	47.0	1575.0	blue	0.57	[0,1]	Ambiguous	wide	left	j
Ambiguity	48.0	976.0	blue	0.59	[0,1]	Ambiguous	wide	left	j
Ambiguity	49.0	1314.0	blue	0.62	[0,1]	risk	wide	right	j
Ambiguity	50.0	888.0	blue	0.61	[0,1]	risk	wide	right	j
Ambiguity	51.0	1142.0	blue	0.57	[0,1]	Ambiguous	wide	left	j
Ambiguity	52.0	1094.0	blue	0.59	[0,1]	Ambiguous	wide	right	f
Ambiguity	53.0	810.0	blue	0.58	[0,1]	Ambiguous	wide	right	f
Ambiguity	54.0	721.0	blue	0.58	[0,1]	Ambiguous	wide	right	f
Ambiguity	55.0	729.0	blue	0.64	[0,1]	risk	wide	right	j
Ambiguity	56.0	1304.0	blue	0.63	[0,1]	risk	wide	left	f
Ambiguity	57.0	685.0	blue	0.59	[0,1]	Ambiguous	wide	left	j
Ambiguity	58.0	1688.0	blue	0.6	[0,1]	risk	wide	right	j
Ambiguity	59.0	1126.0	blue	0.58	[0,1]	Ambiguous	wide	left	j
Ambiguity	60.0	1921.0	red	0.5	[0.25,0.75]	risk	skew	right	j
Ambiguity	61.0	1040.0	red	0.4	[0.25,0.75]	risk	skew	left	f
Ambiguity	62.0	931.0	red	0.25	[0.25,0.75]	Ambiguous	skew	right	f
Ambiguity	63.0	1555.0	red	0.33	[0.25,0.75]	Ambiguous	skew	left	j
Ambiguity	64.0	1157.0	red	0.42	[0.25,0.75]	risk	skew	right	j
Ambiguity	65.0	1766.0	red	0.37	[0.25,0.75]	Ambiguous	skew	left	j
Ambiguity	66.0	1078.0	red	0.39	[0.25,0.75]	Ambiguous	skew	left	j
Ambiguity	67.0	979.0	red	0.45	[0.25,0.75]	risk	skew	left	f
Ambiguity	68.0	618.0	red	0.42	[0.25,0.75]	risk	skew	left	f
Ambiguity	69.0	782.0	red	0.39	[0.25,0.75]	Ambiguous	skew	left	j
Ambiguity	70.0	1232.0	red	0.39	[0.25,0.75]	Ambiguous	skew	right	f
Ambiguity	71.0	867.0	red	0.4	[0.25,0.75]	risk	skew	right	j
Ambiguity	72.0	814.0	red	0.4	[0.25,0.75]	risk	skew	left	f
Ambiguity	73.0	1039.0	red	0.37	[0.25,0.75]	Ambiguous	skew	right	f
Ambiguity	74.0	1527.0	red	0.38	[0.25,0.75]	Ambiguous	skew	left	j
Ambiguity	75.0	994.0	red	0.5	[0,1]	risk	skew	left	f
Ambiguity	76.0	840.0	red	0.41	[0,1]	risk	skew	left	f
Ambiguity	77.0	913.0	red	0.26	[0,1]	Ambiguous	skew	right	f
Ambiguity	78.0	807.0	red	0.34	[0,1]	Ambiguous	skew	left	j
Ambiguity	79.0	1358.0	red	0.45	[0,1]	risk	skew	left	f
Ambiguity	80.0	728.0	red	0.38	[0,1]	Ambiguous	skew	left	j
Ambiguity	81.0	933.0	red	0.42	[0,1]	risk	skew	right	j
Ambiguity	82.0	852.0	red	0.42	[0,1]	risk	skew	left	f
Ambiguity	83.0	811.0	red	0.4	[0,1]	risk	skew	left	f
Ambiguity	84.0	1025.0	red	0.35	[0,1]	risk	skew	right	j
Ambiguity	85.0	714.0	red	0.29	[0,1]	Ambiguous	skew	left	j
Ambiguity	86.0	1040.0	red	0.33	[0,1]	Ambiguous	skew	right	f
Ambiguity	87.0	1060.0	red	0.35	[0,1]	Ambiguous	skew	left	j
Ambiguity	88.0	1542.0	red	0.37	[0,1]	Ambiguous	skew	right	f
Ambiguity	89.0	874.0	red	0.47	[0,1]	risk	skew	right	j
