Blocktype	tnum	rt	color	per	Amb	RL_feedback	choice	dist	side	response
Learning	1.0	1324.0	blue	0.5	[0,1]	win	risk	norm	right	j
Learning	2.0	2664.0	blue	0.38	[0,1]	win	Amb	norm	right	f
Learning	3.0	879.0	blue	0.4	[0,1]	win	Amb	norm	right	f
Learning	4.0	1100.0	blue	0.49	[0,1]	win	Amb	norm	left	j
Learning	5.0	1326.0	blue	0.57	[0,1]	win	risk	norm	left	f
Learning	6.0	876.0	blue	0.52	[0,1]	win	risk	norm	left	f
Learning	7.0	930.0	blue	0.43	[0,1]	win	Amb	norm	right	f
Learning	8.0	944.0	blue	0.45	[0,1]	win	Amb	norm	right	f
Learning	9.0	1171.0	blue	0.51	[0,1]	win	Amb	norm	left	j
Learning	10.0	1034.0	blue	0.57	[0,1]	win	risk	norm	right	j
Learning	11.0	1632.0	blue	0.5	[0,1]	win	Amb	norm	right	f
Learning	12.0	876.0	blue	0.54	[0,1]	win	risk	norm	right	j
Learning	13.0	1826.0	blue	0.51	[0,1]	win	Amb	norm	right	f
Learning	14.0	1164.0	blue	0.51	[0,1]	win	Amb	norm	left	j
Learning	15.0	1649.0	blue	0.49	[0,1]	win	Amb	norm	right	f
Learning	1.0	1863.0	green	0.5	[0,1]	win	risk	norm	right	j
Learning	2.0	980.0	green	0.38	[0,1]	win	Amb	norm	right	f
Learning	3.0	2465.0	green	0.43	[0,1]	win	Amb	norm	right	f
Learning	4.0	1205.0	green	0.51	[0,1]	win	risk	norm	right	j
Learning	5.0	810.0	green	0.48	[0,1]	win	Amb	norm	right	f
Learning	6.0	970.0	green	0.47	[0,1]	win	Amb	norm	left	j
Learning	7.0	1392.0	green	0.48	[0,1]	win	risk	norm	right	j
Learning	8.0	889.0	green	0.47	[0,1]	win	Amb	norm	right	f
Learning	9.0	1025.0	green	0.45	[0,1]	win	Amb	norm	left	j
Learning	10.0	1069.0	green	0.46	[0,1]	win	Amb	norm	right	f
Learning	11.0	1467.0	green	0.46	[0,1]	win	Amb	norm	left	j
Learning	12.0	1493.0	green	0.5	[0,1]	win	risk	norm	left	f
Learning	13.0	1131.0	green	0.5	[0,1]	win	risk	norm	right	j
Learning	14.0	884.0	green	0.47	[0,1]	win	Amb	norm	left	j
Learning	15.0	2512.0	green	0.46	[0,1]	win	Amb	norm	left	j
Learning	1.0	1869.0	red	0.5	[0,1]	win	Amb	norm	right	f
Learning	2.0	1149.0	red	0.61	[0,1]	win	risk	norm	left	f
Learning	3.0	1500.0	red	0.55	[0,1]	win	Amb	norm	left	j
Learning	4.0	997.0	red	0.55	[0,1]	win	Amb	norm	right	f
Learning	5.0	993.0	red	0.56	[0,1]	win	Amb	norm	left	j
Learning	6.0	1905.0	red	0.63	[0,1]	win	risk	norm	left	f
Learning	7.0	853.0	red	0.6	[0,1]	win	Amb	norm	right	f
Learning	8.0	966.0	red	0.62	[0,1]	win	risk	norm	left	f
Learning	9.0	850.0	red	0.61	[0,1]	win	risk	norm	left	f
Learning	10.0	1195.0	red	0.61	[0,1]	win	risk	norm	left	f
Learning	11.0	1149.0	red	0.6	[0,1]	win	risk	norm	right	j
Learning	12.0	770.0	red	0.56	[0,1]	win	Amb	norm	right	f
Learning	13.0	1266.0	red	0.56	[0,1]	win	Amb	norm	right	f
Learning	14.0	1607.0	red	0.56	[0,1]	win	Amb	norm	left	j
Learning	15.0	994.0	red	0.58	[0,1]	win	Amb	norm	right	f
Learning	1.0	1505.0	blue	0.5	[0,1]	lose	risk	norm	left	f
Learning	2.0	2112.0	blue	0.4	[0,1]	lose	Amb	norm	right	f
Learning	3.0	1306.0	blue	0.47	[0,1]	lose	risk	norm	right	j
Learning	4.0	1693.0	blue	0.43	[0,1]	lose	Amb	norm	left	j
Learning	5.0	656.0	blue	0.43	[0,1]	lose	Amb	norm	left	j
Learning	6.0	1132.0	blue	0.46	[0,1]	lose	risk	norm	right	j
Learning	7.0	1340.0	blue	0.44	[0,1]	lose	Amb	norm	left	j
Learning	8.0	946.0	blue	0.45	[0,1]	lose	risk	norm	right	j
Learning	9.0	934.0	blue	0.44	[0,1]	lose	Amb	norm	right	f
Learning	10.0	853.0	blue	0.45	[0,1]	lose	Amb	norm	left	j
Learning	11.0	1152.0	blue	0.47	[0,1]	lose	risk	norm	right	j
Learning	12.0	1178.0	blue	0.46	[0,1]	lose	risk	norm	right	j
Learning	13.0	1681.0	blue	0.45	[0,1]	lose	risk	norm	right	j
Learning	14.0	1233.0	blue	0.46	[0,1]	lose	risk	norm	left	f
Learning	15.0	661.0	blue	0.44	[0,1]	lose	risk	norm	left	f
Learning	1.0	871.0	green	0.5	[0,1]	lose	risk	norm	right	j
Learning	2.0	700.0	green	0.41	[0,1]	lose	Amb	norm	right	f
Learning	3.0	1234.0	green	0.44	[0,1]	lose	Amb	norm	left	j
Learning	4.0	789.0	green	0.52	[0,1]	lose	risk	norm	left	f
Learning	5.0	787.0	green	0.48	[0,1]	lose	Amb	norm	right	f
Learning	6.0	993.0	green	0.49	[0,1]	lose	Amb	norm	left	j
Learning	7.0	974.0	green	0.49	[0,1]	lose	Amb	norm	right	f
Learning	8.0	1251.0	green	0.55	[0,1]	lose	risk	norm	left	f
Learning	9.0	1089.0	green	0.52	[0,1]	lose	risk	norm	right	j
Learning	10.0	812.0	green	0.47	[0,1]	lose	Amb	norm	left	j
Learning	11.0	909.0	green	0.51	[0,1]	lose	risk	norm	left	f
Learning	12.0	766.0	green	0.49	[0,1]	lose	Amb	norm	left	j
Learning	13.0	665.0	green	0.47	[0,1]	lose	Amb	norm	left	j
Learning	14.0	831.0	green	0.47	[0,1]	lose	Amb	norm	left	j
Learning	15.0	661.0	green	0.48	[0,1]	lose	Amb	norm	left	j
Learning	1.0	1809.0	red	0.5	[0,1]	lose	risk	norm	left	f
Learning	2.0	1103.0	red	0.41	[0,1]	lose	Amb	norm	right	f
Learning	3.0	1618.0	red	0.46	[0,1]	lose	Amb	norm	right	f
Learning	4.0	1083.0	red	0.55	[0,1]	lose	risk	norm	left	f
Learning	5.0	1052.0	red	0.5	[0,1]	lose	risk	norm	right	j
Learning	6.0	771.0	red	0.42	[0,1]	lose	Amb	norm	right	f
Learning	7.0	965.0	red	0.46	[0,1]	lose	risk	norm	right	j
Learning	8.0	1056.0	red	0.44	[0,1]	lose	risk	norm	right	j
Learning	9.0	830.0	red	0.42	[0,1]	lose	risk	norm	left	f
Learning	10.0	865.0	red	0.38	[0,1]	lose	Amb	norm	left	j
Learning	11.0	846.0	red	0.38	[0,1]	lose	risk	norm	right	j
Learning	12.0	840.0	red	0.36	[0,1]	lose	Amb	norm	left	j
Learning	13.0	951.0	red	0.37	[0,1]	lose	Amb	norm	right	f
Learning	14.0	879.0	red	0.38	[0,1]	lose	Amb	norm	left	j
Learning	15.0	1290.0	red	0.39	[0,1]	lose	Amb	norm	right	f
