Blocktype	tnum	rt	color	per	Amb	RL_feedback	choice	dist	side	response
Learning	1.0	2473.0	red	0.5	[0,1]	lose	risk	norm	right	j
Learning	2.0	1961.0	red	0.4	[0,1]	lose	Amb	norm	left	j
Learning	3.0	1568.0	red	0.45	[0,1]	lose	Amb	norm	left	j
Learning	4.0	1124.0	red	0.54	[0,1]	lose	risk	norm	right	j
Learning	5.0	924.0	red	0.48	[0,1]	lose	Amb	norm	left	j
Learning	6.0	1046.0	red	0.49	[0,1]	lose	Amb	norm	left	j
Learning	7.0	729.0	red	0.51	[0,1]	lose	risk	norm	right	j
Learning	8.0	461.0	red	0.5	[0,1]	lose	risk	norm	right	j
Learning	9.0	1942.0	red	0.49	[0,1]	lose	Amb	norm	right	f
Learning	10.0	1292.0	red	0.5	[0,1]	lose	risk	norm	left	f
Learning	11.0	1361.0	red	0.5	[0,1]	lose	risk	norm	right	j
Learning	12.0	1340.0	red	0.48	[0,1]	lose	risk	norm	left	f
Learning	13.0	580.0	red	0.48	[0,1]	lose	risk	norm	left	f
Learning	14.0	943.0	red	0.45	[0,1]	lose	Amb	norm	right	f
Learning	15.0	800.0	red	0.48	[0,1]	lose	Amb	norm	right	f
Learning	1.0	1343.0	blue	0.5	[0,1]	win	Amb	norm	right	f
Learning	2.0	1383.0	blue	0.6	[0,1]	win	Amb	norm	left	j
Learning	3.0	1154.0	blue	0.76	[0,1]	win	risk	norm	right	j
Learning	4.0	1036.0	blue	0.69	[0,1]	win	Amb	norm	left	j
Learning	5.0	1318.0	blue	0.7	[0,1]	win	risk	norm	right	j
Learning	6.0	1158.0	blue	0.67	[0,1]	win	Amb	norm	right	f
Learning	7.0	1299.0	blue	0.66	[0,1]	win	Amb	norm	left	j
Learning	8.0	1264.0	blue	0.67	[0,1]	win	Amb	norm	right	f
Learning	9.0	1017.0	blue	0.66	[0,1]	win	Amb	norm	left	j
Learning	10.0	1213.0	blue	0.67	[0,1]	win	Amb	norm	right	f
Learning	11.0	789.0	blue	0.71	[0,1]	win	risk	norm	left	f
Learning	12.0	1277.0	blue	0.69	[0,1]	win	risk	norm	left	f
Learning	13.0	890.0	blue	0.66	[0,1]	win	Amb	norm	right	f
Learning	14.0	960.0	blue	0.67	[0,1]	win	Amb	norm	right	f
Learning	15.0	1315.0	blue	0.67	[0,1]	win	Amb	norm	left	j
Learning	1.0	1328.0	green	0.5	[0,1]	lose	risk	norm	right	j
Learning	2.0	1172.0	green	0.4	[0,1]	lose	Amb	norm	right	f
Learning	3.0	1241.0	green	0.47	[0,1]	lose	Amb	norm	left	j
Learning	4.0	698.0	green	0.53	[0,1]	lose	risk	norm	right	j
Learning	5.0	716.0	green	0.5	[0,1]	lose	risk	norm	right	j
Learning	6.0	954.0	green	0.44	[0,1]	lose	Amb	norm	left	j
Learning	7.0	1377.0	green	0.45	[0,1]	lose	Amb	norm	right	f
Learning	8.0	1239.0	green	0.51	[0,1]	lose	risk	norm	right	j
Learning	9.0	1050.0	green	0.5	[0,1]	lose	risk	norm	left	f
Learning	10.0	957.0	green	0.46	[0,1]	lose	Amb	norm	right	f
Learning	11.0	1396.0	green	0.46	[0,1]	lose	Amb	norm	left	j
Learning	12.0	1140.0	green	0.48	[0,1]	lose	Amb	norm	right	f
Learning	13.0	1028.0	green	0.53	[0,1]	lose	risk	norm	right	j
Learning	14.0	1103.0	green	0.51	[0,1]	lose	risk	norm	left	f
Learning	15.0	807.0	green	0.49	[0,1]	lose	Amb	norm	right	f
Learning	1.0	2603.0	red	0.5	[0,1]	win	Amb	norm	right	f
Learning	2.0	1099.0	red	0.61	[0,1]	win	risk	norm	right	j
Learning	3.0	573.0	red	0.57	[0,1]	win	risk	norm	left	f
Learning	4.0	683.0	red	0.47	[0,1]	win	Amb	norm	right	f
Learning	5.0	832.0	red	0.49	[0,1]	win	Amb	norm	left	j
Learning	6.0	782.0	red	0.56	[0,1]	win	risk	norm	right	j
Learning	7.0	813.0	red	0.52	[0,1]	win	risk	norm	left	f
Learning	8.0	697.0	red	0.48	[0,1]	win	Amb	norm	right	f
Learning	9.0	797.0	red	0.47	[0,1]	win	Amb	norm	right	f
Learning	10.0	1110.0	red	0.52	[0,1]	win	risk	norm	right	j
Learning	11.0	693.0	red	0.49	[0,1]	win	Amb	norm	right	f
Learning	12.0	550.0	red	0.52	[0,1]	win	risk	norm	right	j
Learning	13.0	831.0	red	0.52	[0,1]	win	risk	norm	left	f
Learning	14.0	460.0	red	0.52	[0,1]	win	risk	norm	left	f
Learning	15.0	584.0	red	0.51	[0,1]	win	risk	norm	left	f
Learning	1.0	798.0	green	0.5	[0,1]	win	Amb	norm	right	f
Learning	2.0	650.0	green	0.6	[0,1]	win	Amb	norm	left	j
Learning	3.0	586.0	green	0.74	[0,1]	win	risk	norm	left	f
Learning	4.0	824.0	green	0.68	[0,1]	win	Amb	norm	right	f
Learning	5.0	660.0	green	0.71	[0,1]	win	risk	norm	right	j
Learning	6.0	719.0	green	0.69	[0,1]	win	Amb	norm	left	j
Learning	7.0	3669.0	green	0.68	[0,1]	win	risk	norm	right	j
Learning	8.0	468.0	green	0.67	[0,1]	win	risk	norm	right	j
Learning	9.0	739.0	green	0.67	[0,1]	win	risk	norm	left	f
Learning	10.0	415.0	green	0.66	[0,1]	win	risk	norm	left	f
Learning	11.0	340.0	green	0.65	[0,1]	win	risk	norm	left	f
Learning	12.0	494.0	green	0.63	[0,1]	win	risk	norm	right	j
Learning	13.0	894.0	green	0.57	[0,1]	win	risk	norm	right	j
Learning	14.0	539.0	green	0.5	[0,1]	win	risk	norm	right	j
Learning	15.0	780.0	green	0.43	[0,1]	win	Amb	norm	left	j
Learning	1.0	1088.0	blue	0.5	[0,1]	lose	Amb	norm	left	j
Learning	2.0	703.0	blue	0.61	[0,1]	lose	risk	norm	left	f
Learning	3.0	532.0	blue	0.54	[0,1]	lose	Amb	norm	right	f
Learning	4.0	713.0	blue	0.57	[0,1]	lose	Amb	norm	left	j
Learning	5.0	621.0	blue	0.61	[0,1]	lose	risk	norm	right	j
Learning	6.0	670.0	blue	0.58	[0,1]	lose	Amb	norm	left	j
Learning	7.0	839.0	blue	0.6	[0,1]	lose	risk	norm	right	j
Learning	8.0	649.0	blue	0.58	[0,1]	lose	Amb	norm	right	f
Learning	9.0	716.0	blue	0.58	[0,1]	lose	Amb	norm	right	f
Learning	10.0	547.0	blue	0.59	[0,1]	lose	Amb	norm	right	f
Learning	11.0	646.0	blue	0.6	[0,1]	lose	risk	norm	left	f
Learning	12.0	756.0	blue	0.6	[0,1]	lose	risk	norm	left	f
Learning	13.0	641.0	blue	0.58	[0,1]	lose	risk	norm	left	f
Learning	14.0	665.0	blue	0.55	[0,1]	lose	Amb	norm	left	j
Learning	15.0	611.0	blue	0.52	[0,1]	lose	Amb	norm	left	j
