Blocktype	tnum	rt	color	per	Amb	RL_feedback	choice	dist	side	response
Learning	1.0	2002.0	blue	0.5	[0,1]	lose	risk	norm	left	f
Learning	2.0	3460.0	blue	0.38	[0,1]	lose	Amb	norm	left	j
Learning	3.0	650.0	blue	0.43	[0,1]	lose	risk	norm	left	f
Learning	4.0	829.0	blue	0.39	[0,1]	lose	risk	norm	right	j
Learning	5.0	768.0	blue	0.36	[0,1]	lose	Amb	norm	right	f
Learning	6.0	2226.0	blue	0.38	[0,1]	lose	Amb	norm	right	f
Learning	7.0	786.0	blue	0.42	[0,1]	lose	risk	norm	right	j
Learning	8.0	589.0	blue	0.42	[0,1]	lose	risk	norm	left	f
Learning	9.0	1033.0	blue	0.39	[0,1]	lose	Amb	norm	left	j
Learning	10.0	1144.0	blue	0.39	[0,1]	lose	risk	norm	left	f
Learning	11.0	1150.0	blue	0.39	[0,1]	lose	risk	norm	left	f
Learning	12.0	981.0	blue	0.39	[0,1]	lose	risk	norm	right	j
Learning	13.0	743.0	blue	0.39	[0,1]	lose	risk	norm	left	f
Learning	14.0	723.0	blue	0.37	[0,1]	lose	Amb	norm	left	j
Learning	15.0	720.0	blue	0.37	[0,1]	lose	Amb	norm	left	j
Learning	1.0	919.0	red	0.5	[0,1]	win	risk	norm	right	j
Learning	2.0	754.0	red	0.41	[0,1]	win	risk	norm	left	f
Learning	3.0	568.0	red	0.24	[0,1]	win	Amb	norm	left	j
Learning	4.0	612.0	red	0.33	[0,1]	win	Amb	norm	left	j
Learning	5.0	790.0	red	0.42	[0,1]	win	risk	norm	right	j
Learning	6.0	746.0	red	0.35	[0,1]	win	Amb	norm	right	f
Learning	7.0	617.0	red	0.4	[0,1]	win	risk	norm	left	f
Learning	8.0	1079.0	red	0.37	[0,1]	win	risk	norm	right	j
Learning	9.0	1897.0	red	0.36	[0,1]	win	Amb	norm	right	f
Learning	10.0	2098.0	red	0.39	[0,1]	win	risk	norm	left	f
Learning	11.0	1232.0	red	0.37	[0,1]	win	Amb	norm	right	f
Learning	12.0	1465.0	red	0.34	[0,1]	win	Amb	norm	left	j
Learning	13.0	850.0	red	0.35	[0,1]	win	Amb	norm	left	j
Learning	14.0	711.0	red	0.37	[0,1]	win	Amb	norm	right	f
Learning	15.0	866.0	red	0.4	[0,1]	win	risk	norm	left	f
Learning	1.0	711.0	red	0.5	[0,1]	lose	risk	norm	right	j
Learning	2.0	873.0	red	0.39	[0,1]	lose	risk	norm	left	f
Learning	3.0	680.0	red	0.24	[0,1]	lose	Amb	norm	left	j
Learning	4.0	916.0	red	0.29	[0,1]	lose	Amb	norm	right	f
Learning	5.0	1034.0	red	0.39	[0,1]	lose	risk	norm	left	f
Learning	6.0	719.0	red	0.34	[0,1]	lose	Amb	norm	right	f
Learning	7.0	804.0	red	0.35	[0,1]	lose	Amb	norm	right	f
Learning	8.0	577.0	red	0.4	[0,1]	lose	risk	norm	right	j
Learning	9.0	665.0	red	0.37	[0,1]	lose	Amb	norm	right	f
Learning	10.0	898.0	red	0.36	[0,1]	lose	Amb	norm	right	f
Learning	11.0	638.0	red	0.39	[0,1]	lose	risk	norm	left	f
Learning	12.0	757.0	red	0.39	[0,1]	lose	risk	norm	right	j
Learning	13.0	726.0	red	0.38	[0,1]	lose	Amb	norm	right	f
Learning	14.0	610.0	red	0.38	[0,1]	lose	Amb	norm	left	j
Learning	15.0	576.0	red	0.4	[0,1]	lose	risk	norm	left	f
Learning	1.0	625.0	green	0.5	[0,1]	lose	risk	norm	right	j
Learning	2.0	671.0	green	0.4	[0,1]	lose	risk	norm	right	j
Learning	3.0	658.0	green	0.26	[0,1]	lose	Amb	norm	right	f
Learning	4.0	811.0	green	0.34	[0,1]	lose	Amb	norm	left	j
Learning	5.0	627.0	green	0.47	[0,1]	lose	risk	norm	left	f
Learning	6.0	517.0	green	0.4	[0,1]	lose	risk	norm	right	j
Learning	7.0	784.0	green	0.33	[0,1]	lose	Amb	norm	left	j
Learning	8.0	740.0	green	0.38	[0,1]	lose	Amb	norm	right	f
Learning	9.0	548.0	green	0.46	[0,1]	lose	risk	norm	right	j
Learning	10.0	682.0	green	0.41	[0,1]	lose	risk	norm	right	j
Learning	11.0	588.0	green	0.36	[0,1]	lose	risk	norm	left	f
Learning	12.0	575.0	green	0.28	[0,1]	lose	Amb	norm	right	f
Learning	13.0	756.0	green	0.31	[0,1]	lose	Amb	norm	right	f
Learning	14.0	859.0	green	0.37	[0,1]	lose	Amb	norm	left	j
Learning	15.0	579.0	green	0.43	[0,1]	lose	risk	norm	left	f
Learning	1.0	761.0	blue	0.5	[0,1]	win	risk	norm	left	f
Learning	2.0	617.0	blue	0.4	[0,1]	win	risk	norm	left	f
Learning	3.0	612.0	blue	0.25	[0,1]	win	risk	norm	right	j
Learning	4.0	623.0	blue	0.02	[0,1]	win	Amb	norm	left	j
Learning	5.0	1400.0	blue	0.14	[0,1]	win	Amb	norm	right	f
Learning	6.0	831.0	blue	0.31	[0,1]	win	Amb	norm	left	j
Learning	7.0	595.0	blue	0.56	[0,1]	win	risk	norm	left	f
Learning	8.0	633.0	blue	0.41	[0,1]	win	risk	norm	left	f
Learning	9.0	686.0	blue	0.22	[0,1]	win	Amb	norm	left	j
Learning	10.0	1449.0	blue	0.32	[0,1]	win	Amb	norm	right	f
Learning	11.0	625.0	blue	0.45	[0,1]	win	risk	norm	left	f
Learning	12.0	796.0	blue	0.37	[0,1]	win	Amb	norm	right	f
Learning	13.0	557.0	blue	0.41	[0,1]	win	risk	norm	right	j
Learning	14.0	887.0	blue	0.39	[0,1]	win	risk	norm	right	j
Learning	15.0	922.0	blue	0.36	[0,1]	win	Amb	norm	left	j
Learning	1.0	861.0	green	0.5	[0,1]	win	risk	norm	left	f
Learning	2.0	660.0	green	0.4	[0,1]	win	risk	norm	right	j
Learning	3.0	768.0	green	0.24	[0,1]	win	Amb	norm	left	j
Learning	4.0	995.0	green	0.32	[0,1]	win	Amb	norm	right	f
Learning	5.0	588.0	green	0.45	[0,1]	win	risk	norm	right	j
Learning	6.0	775.0	green	0.37	[0,1]	win	Amb	norm	left	j
Learning	7.0	521.0	green	0.4	[0,1]	win	risk	norm	left	f
Learning	8.0	803.0	green	0.38	[0,1]	win	Amb	norm	right	f
Learning	9.0	771.0	green	0.38	[0,1]	win	Amb	norm	left	j
Learning	10.0	933.0	green	0.36	[0,1]	win	Amb	norm	left	j
Learning	11.0	779.0	green	0.37	[0,1]	win	Amb	norm	right	f
Learning	12.0	493.0	green	0.41	[0,1]	win	risk	norm	right	j
Learning	13.0	464.0	green	0.41	[0,1]	win	risk	norm	right	j
Learning	14.0	361.0	green	0.4	[0,1]	win	risk	norm	right	j
Learning	15.0	489.0	green	0.36	[0,1]	win	Amb	norm	right	f
