Blocktype	tnum	rt	color	per	Amb	RL_feedback	choice	dist	side	response
Learning	1.0		green	0.5	[0,1]	win	Amb	norm	right	
Learning	2.0	2695.0	green	0.57	[0,1]	win	risk	norm	right	j
Learning	3.0	1885.0	green	0.52	[0,1]	win	risk	norm	right	j
Learning	4.0	1127.0	green	0.45	[0,1]	win	risk	norm	right	j
Learning	5.0	1214.0	green	0.32	[0,1]	win	risk	norm	right	j
Learning	6.0	1869.0	green	0.14	[0,1]	win	Amb	norm	right	f
Learning	7.0	1325.0	green	0.22	[0,1]	win	Amb	norm	left	j
Learning	8.0	1268.0	green	0.32	[0,1]	win	Amb	norm	left	j
Learning	9.0	1050.0	green	0.52	[0,1]	win	risk	norm	left	f
Learning	10.0	2497.0	green	0.41	[0,1]	win	risk	norm	right	j
Learning	11.0	1020.0	green	0.26	[0,1]	win	Amb	norm	right	f
Learning	12.0	1891.0	green	0.34	[0,1]	win	risk	norm	right	j
Learning	13.0	1408.0	green	0.3	[0,1]	win	risk	norm	left	f
Learning	14.0	974.0	green	0.24	[0,1]	win	Amb	norm	right	f
Learning	15.0	1383.0	green	0.29	[0,1]	win	Amb	norm	left	j
Learning	1.0	2382.0	red	0.5	[0,1]	win	risk	norm	left	f
Learning	2.0	1559.0	red	0.39	[0,1]	win	risk	norm	left	f
Learning	3.0	1186.0	red	0.22	[0,1]	win	Amb	norm	right	f
Learning	4.0	1412.0	red	0.3	[0,1]	win	Amb	norm	right	f
Learning	5.0	2186.0	red	0.39	[0,1]	win	risk	norm	left	f
Learning	6.0	1237.0	red	0.33	[0,1]	win	risk	norm	left	f
Learning	7.0	831.0	red	0.25	[0,1]	win	Amb	norm	left	j
Learning	8.0	1709.0	red	0.27	[0,1]	win	Amb	norm	right	f
Learning	9.0	1836.0	red	0.3	[0,1]	win	Amb	norm	right	f
Learning	10.0	1269.0	red	0.37	[0,1]	win	risk	norm	right	j
Learning	11.0	1614.0	red	0.33	[0,1]	win	risk	norm	left	f
Learning	12.0	971.0	red	0.26	[0,1]	win	Amb	norm	left	j
Learning	13.0	1200.0	red	0.3	[0,1]	win	Amb	norm	right	f
Learning	14.0	1357.0	red	0.32	[0,1]	win	Amb	norm	right	f
Learning	15.0	1521.0	red	0.37	[0,1]	win	risk	norm	left	f
Learning	1.0	2076.0	green	0.5	[0,1]	lose	risk	norm	left	f
Learning	2.0	1054.0	green	0.4	[0,1]	lose	risk	norm	right	j
Learning	3.0	1076.0	green	0.26	[0,1]	lose	Amb	norm	left	j
Learning	4.0	1057.0	green	0.35	[0,1]	lose	Amb	norm	left	j
Learning	5.0	838.0	green	0.47	[0,1]	lose	risk	norm	left	f
Learning	6.0	1211.0	green	0.4	[0,1]	lose	risk	norm	right	j
Learning	7.0	1299.0	green	0.33	[0,1]	lose	risk	norm	right	j
Learning	8.0	962.0	green	0.21	[0,1]	lose	Amb	norm	right	f
Learning	9.0	1102.0	green	0.25	[0,1]	lose	Amb	norm	right	f
Learning	10.0	957.0	green	0.31	[0,1]	lose	risk	norm	left	f
Learning	11.0	767.0	green	0.24	[0,1]	lose	Amb	norm	left	j
Learning	12.0	771.0	green	0.25	[0,1]	lose	Amb	norm	left	j
Learning	13.0	759.0	green	0.28	[0,1]	lose	Amb	norm	left	j
Learning	14.0	945.0	green	0.31	[0,1]	lose	Amb	norm	left	j
Learning	15.0	1045.0	green	0.37	[0,1]	lose	risk	norm	left	f
Learning	1.0	2262.0	blue	0.5	[0,1]	lose	risk	norm	left	f
Learning	2.0	1277.0	blue	0.39	[0,1]	lose	risk	norm	right	j
Learning	3.0	994.0	blue	0.23	[0,1]	lose	Amb	norm	right	f
Learning	4.0	1185.0	blue	0.3	[0,1]	lose	risk	norm	left	f
Learning	5.0	1042.0	blue	0.27	[0,1]	lose	Amb	norm	right	f
Learning	6.0	954.0	blue	0.27	[0,1]	lose	Amb	norm	right	f
Learning	7.0	1099.0	blue	0.31	[0,1]	lose	risk	norm	right	j
Learning	8.0	1276.0	blue	0.31	[0,1]	lose	risk	norm	left	f
Learning	9.0	1115.0	blue	0.3	[0,1]	lose	Amb	norm	right	f
Learning	10.0	958.0	blue	0.28	[0,1]	lose	Amb	norm	right	f
Learning	11.0	1751.0	blue	0.31	[0,1]	lose	risk	norm	left	f
Learning	12.0	1174.0	blue	0.31	[0,1]	lose	risk	norm	left	f
Learning	13.0	915.0	blue	0.29	[0,1]	lose	Amb	norm	left	j
Learning	14.0	1154.0	blue	0.27	[0,1]	lose	Amb	norm	right	f
Learning	15.0	1134.0	blue	0.28	[0,1]	lose	Amb	norm	right	f
Learning	1.0	2842.0	blue	0.5	[0,1]	win	risk	norm	left	f
Learning	2.0	1000.0	blue	0.4	[0,1]	win	risk	norm	right	j
Learning	3.0	955.0	blue	0.23	[0,1]	win	Amb	norm	right	f
Learning	4.0	1175.0	blue	0.33	[0,1]	win	risk	norm	right	j
Learning	5.0	798.0	blue	0.27	[0,1]	win	Amb	norm	left	j
Learning	6.0	996.0	blue	0.26	[0,1]	win	Amb	norm	right	f
Learning	7.0	1147.0	blue	0.3	[0,1]	win	Amb	norm	left	j
Learning	8.0	952.0	blue	0.34	[0,1]	win	Amb	norm	left	j
Learning	9.0	1120.0	blue	0.37	[0,1]	win	risk	norm	left	f
Learning	10.0	777.0	blue	0.32	[0,1]	win	Amb	norm	left	j
Learning	11.0	1254.0	blue	0.34	[0,1]	win	Amb	norm	left	j
Learning	12.0	1060.0	blue	0.35	[0,1]	win	risk	norm	left	f
Learning	13.0	784.0	blue	0.35	[0,1]	win	risk	norm	left	f
Learning	14.0	1070.0	blue	0.33	[0,1]	win	Amb	norm	left	j
Learning	15.0	1240.0	blue	0.35	[0,1]	win	risk	norm	right	j
Learning	1.0	2065.0	red	0.5	[0,1]	lose	risk	norm	left	f
Learning	2.0	1335.0	red	0.39	[0,1]	lose	risk	norm	right	j
Learning	3.0	834.0	red	0.23	[0,1]	lose	Amb	norm	left	j
Learning	4.0	1223.0	red	0.31	[0,1]	lose	risk	norm	right	j
Learning	5.0	864.0	red	0.28	[0,1]	lose	Amb	norm	right	f
Learning	6.0	1002.0	red	0.29	[0,1]	lose	Amb	norm	right	f
Learning	7.0	1385.0	red	0.3	[0,1]	lose	risk	norm	right	j
Learning	8.0	867.0	red	0.29	[0,1]	lose	Amb	norm	left	j
Learning	9.0	960.0	red	0.31	[0,1]	lose	Amb	norm	left	j
Learning	10.0	1311.0	red	0.33	[0,1]	lose	risk	norm	right	j
Learning	11.0	1390.0	red	0.3	[0,1]	lose	Amb	norm	left	j
Learning	12.0	1077.0	red	0.28	[0,1]	lose	Amb	norm	right	f
Learning	13.0	845.0	red	0.29	[0,1]	lose	Amb	norm	left	j
Learning	14.0	826.0	red	0.28	[0,1]	lose	Amb	norm	left	j
Learning	15.0	1037.0	red	0.3	[0,1]	lose	Amb	norm	left	j
