Blocktype	tnum	rt	color	per	Amb	choice	dist	side	response
Ambiguity	0.0		red	0.5	[0.25,0.75]	Ambiguous	narrow	right	
Ambiguity	1.0	2141.0	red	0.57	[0.25,0.75]	risk	narrow	right	j
Ambiguity	2.0	2348.0	red	0.5	[0.25,0.75]	risk	narrow	left	f
Ambiguity	3.0	1738.0	red	0.4	[0.25,0.75]	Ambiguous	narrow	right	f
Ambiguity	4.0	2354.0	red	0.45	[0.25,0.75]	Ambiguous	narrow	left	j
Ambiguity	5.0	2529.0	red	0.49	[0.25,0.75]	Ambiguous	narrow	left	j
Ambiguity	6.0	1450.0	red	0.56	[0.25,0.75]	risk	narrow	right	j
Ambiguity	7.0	1480.0	red	0.52	[0.25,0.75]	risk	narrow	right	j
Ambiguity	8.0	1393.0	red	0.45	[0.25,0.75]	Ambiguous	narrow	right	f
Ambiguity	9.0	1848.0	red	0.5	[0.25,0.75]	risk	narrow	right	j
Ambiguity	10.0	1684.0	red	0.49	[0.25,0.75]	Ambiguous	narrow	left	j
Ambiguity	11.0	1528.0	red	0.48	[0.25,0.75]	Ambiguous	narrow	right	f
Ambiguity	12.0	2761.0	red	0.49	[0.25,0.75]	Ambiguous	narrow	right	f
Ambiguity	13.0	1701.0	red	0.52	[0.25,0.75]	risk	narrow	right	j
Ambiguity	14.0	1893.0	red	0.5	[0.25,0.75]	risk	narrow	right	j
Ambiguity	15.0	1973.0	red	0.5	[0,1]	risk	narrow	left	f
Ambiguity	16.0	2694.0	red	0.4	[0,1]	risk	narrow	left	f
Ambiguity	17.0	1919.0	red	0.26	[0,1]	Ambiguous	narrow	left	j
Ambiguity	18.0	1547.0	red	0.35	[0,1]	Ambiguous	narrow	right	f
Ambiguity	19.0	2101.0	red	0.47	[0,1]	risk	narrow	left	f
Ambiguity	20.0	2098.0	red	0.39	[0,1]	Ambiguous	narrow	left	j
Ambiguity	21.0	1771.0	red	0.41	[0,1]	Ambiguous	narrow	left	j
Ambiguity	22.0	1570.0	red	0.43	[0,1]	risk	narrow	left	f
Ambiguity	23.0	1764.0	red	0.41	[0,1]	Ambiguous	narrow	right	f
Ambiguity	24.0	2505.0	red	0.4	[0,1]	Ambiguous	narrow	left	j
Ambiguity	25.0	1736.0	red	0.41	[0,1]	Ambiguous	narrow	right	f
Ambiguity	26.0	2039.0	red	0.41	[0,1]	Ambiguous	narrow	left	j
Ambiguity	27.0	2925.0	red	0.42	[0,1]	Ambiguous	narrow	left	j
Ambiguity	28.0	2599.0	red	0.48	[0,1]	risk	narrow	left	f
Ambiguity	29.0	2046.0	red	0.46	[0,1]	Ambiguous	narrow	right	f
Ambiguity	30.0	2949.0	blue	0.5	[0.25,0.75]	Ambiguous	wide	left	j
Ambiguity	31.0	2757.0	blue	0.61	[0.25,0.75]	risk	wide	right	j
Ambiguity	32.0	2885.0	blue	0.55	[0.25,0.75]	Ambiguous	wide	right	f
Ambiguity	33.0	1477.0	blue	0.59	[0.25,0.75]	Ambiguous	wide	left	j
Ambiguity	34.0	1643.0	blue	0.64	[0.25,0.75]	Ambiguous	wide	left	j
Ambiguity	35.0	2052.0	blue	0.67	[0.25,0.75]	risk	wide	right	j
Ambiguity	36.0	1944.0	blue	0.63	[0.25,0.75]	Ambiguous	wide	right	f
Ambiguity	37.0	1251.0	blue	0.63	[0.25,0.75]	Ambiguous	wide	right	f
Ambiguity	38.0	2305.0	blue	0.64	[0.25,0.75]	Ambiguous	wide	right	f
Ambiguity	39.0	1918.0	blue	0.67	[0.25,0.75]	Ambiguous	wide	right	f
Ambiguity	40.0	2354.0	blue	0.71	[0.25,0.75]	risk	wide	left	f
Ambiguity	41.0	2284.0	blue	0.69	[0.25,0.75]	Ambiguous	wide	right	f
Ambiguity	42.0	1631.0	blue	0.72	[0.25,0.75]	risk	wide	right	j
Ambiguity	43.0	1506.0	blue	0.72	[0.25,0.75]	risk	wide	left	f
Ambiguity	44.0	1221.0	blue	0.72	[0.25,0.75]	risk	wide	left	f
Ambiguity	45.0	1679.0	blue	0.5	[0,1]	Ambiguous	wide	left	j
Ambiguity	46.0	1487.0	blue	0.62	[0,1]	risk	wide	right	j
Ambiguity	47.0	1501.0	blue	0.56	[0,1]	Ambiguous	wide	right	f
Ambiguity	48.0	1294.0	blue	0.56	[0,1]	Ambiguous	wide	right	f
Ambiguity	49.0	1461.0	blue	0.59	[0,1]	Ambiguous	wide	left	j
Ambiguity	50.0	1421.0	blue	0.65	[0,1]	risk	wide	left	f
Ambiguity	51.0	1581.0	blue	0.61	[0,1]	risk	wide	right	j
Ambiguity	52.0	1281.0	blue	0.58	[0,1]	Ambiguous	wide	left	j
Ambiguity	53.0	1793.0	blue	0.58	[0,1]	Ambiguous	wide	left	j
Ambiguity	54.0	1933.0	blue	0.6	[0,1]	risk	wide	right	j
Ambiguity	55.0	1306.0	blue	0.56	[0,1]	risk	wide	right	j
Ambiguity	56.0	1469.0	blue	0.54	[0,1]	Ambiguous	wide	left	j
Ambiguity	57.0	1445.0	blue	0.57	[0,1]	Ambiguous	wide	left	j
Ambiguity	58.0	1720.0	blue	0.59	[0,1]	risk	wide	right	j
Ambiguity	59.0	1470.0	blue	0.57	[0,1]	Ambiguous	wide	right	f
Ambiguity	60.0	3112.0	green	0.5	[0.25,0.75]	Ambiguous	skew	right	f
Ambiguity	61.0	2542.0	green	0.58	[0.25,0.75]	Ambiguous	skew	left	j
Ambiguity	62.0	907.0	green	0.71	[0.25,0.75]	risk	skew	left	f
Ambiguity	63.0	1674.0	green	0.65	[0.25,0.75]	risk	skew	right	j
Ambiguity	64.0	1285.0	green	0.53	[0.25,0.75]	Ambiguous	skew	left	j
Ambiguity	65.0	2859.0	green	0.6	[0.25,0.75]	Ambiguous	skew	left	j
Ambiguity	66.0	2501.0	green	0.65	[0.25,0.75]	risk	skew	right	j
Ambiguity	67.0	1700.0	green	0.6	[0.25,0.75]	Ambiguous	skew	left	j
Ambiguity	68.0	1516.0	green	0.64	[0.25,0.75]	risk	skew	right	j
Ambiguity	69.0	1387.0	green	0.63	[0.25,0.75]	risk	skew	left	f
Ambiguity	70.0	1538.0	green	0.6	[0.25,0.75]	Ambiguous	skew	right	f
Ambiguity	71.0	1447.0	green	0.61	[0.25,0.75]	Ambiguous	skew	right	f
Ambiguity	72.0	1130.0	green	0.64	[0.25,0.75]	risk	skew	left	f
Ambiguity	73.0	1241.0	green	0.62	[0.25,0.75]	risk	skew	left	f
Ambiguity	74.0	1464.0	green	0.6	[0.25,0.75]	Ambiguous	skew	left	j
Ambiguity	75.0	1272.0	green	0.5	[0,1]	Ambiguous	skew	left	j
Ambiguity	76.0	1830.0	green	0.6	[0,1]	risk	skew	left	f
Ambiguity	77.0	1476.0	green	0.53	[0,1]	Ambiguous	skew	right	f
Ambiguity	78.0	1700.0	green	0.58	[0,1]	Ambiguous	skew	right	f
Ambiguity	79.0	1016.0	green	0.64	[0,1]	risk	skew	left	f
Ambiguity	80.0	1183.0	green	0.61	[0,1]	risk	skew	left	f
Ambiguity	81.0	1401.0	green	0.59	[0,1]	Ambiguous	skew	right	f
Ambiguity	82.0	1330.0	green	0.57	[0,1]	Ambiguous	skew	left	j
Ambiguity	83.0	1620.0	green	0.58	[0,1]	Ambiguous	skew	left	j
Ambiguity	84.0	859.0	green	0.63	[0,1]	risk	skew	left	f
Ambiguity	85.0	2248.0	green	0.61	[0,1]	Ambiguous	skew	right	f
Ambiguity	86.0	1002.0	green	0.62	[0,1]	risk	skew	right	j
Ambiguity	87.0	1116.0	green	0.61	[0,1]	risk	skew	right	j
Ambiguity	88.0	1157.0	green	0.59	[0,1]	Ambiguous	skew	right	f
Ambiguity	89.0	1324.0	green	0.61	[0,1]	risk	skew	left	f
