Blocktype	tnum	rt	color	per	Amb	choice	dist	side	response
Ambiguity	0.0	3294.0	red	0.5	[0.25,0.75]	Ambiguous	narrow	right	f
Ambiguity	1.0	1656.0	red	0.58	[0.25,0.75]	risk	narrow	right	j
Ambiguity	2.0	3210.0	red	0.52	[0.25,0.75]	risk	narrow	right	j
Ambiguity	3.0	2206.0	red	0.46	[0.25,0.75]	Ambiguous	narrow	left	j
Ambiguity	4.0	1583.0	red	0.47	[0.25,0.75]	Ambiguous	narrow	left	j
Ambiguity	5.0	1469.0	red	0.51	[0.25,0.75]	Ambiguous	narrow	left	j
Ambiguity	6.0	1879.0	red	0.56	[0.25,0.75]	Ambiguous	narrow	left	j
Ambiguity	7.0	1738.0	red	0.7	[0.25,0.75]	risk	narrow	left	f
Ambiguity	8.0	2812.0	red	0.65	[0.25,0.75]	risk	narrow	right	j
Ambiguity	9.0	1246.0	red	0.55	[0.25,0.75]	Ambiguous	narrow	right	f
Ambiguity	10.0	3047.0	red	0.58	[0.25,0.75]	risk	narrow	left	f
Ambiguity	11.0	1981.0	red	0.57	[0.25,0.75]	risk	narrow	right	j
Ambiguity	12.0	1611.0	red	0.53	[0.25,0.75]	risk	narrow	right	j
Ambiguity	13.0	1052.0	red	0.47	[0.25,0.75]	Ambiguous	narrow	left	j
Ambiguity	14.0	2111.0	red	0.5	[0.25,0.75]	risk	narrow	right	j
Ambiguity	15.0	3351.0	red	0.5	[0,1]	Ambiguous	narrow	right	f
Ambiguity	16.0	1721.0	red	0.6	[0,1]	risk	narrow	left	f
Ambiguity	17.0	2001.0	red	0.53	[0,1]	risk	narrow	left	f
Ambiguity	18.0	2111.0	red	0.43	[0,1]	Ambiguous	narrow	left	j
Ambiguity	19.0	1309.0	red	0.46	[0,1]	Ambiguous	narrow	left	j
Ambiguity	20.0	2067.0	red	0.49	[0,1]	Ambiguous	narrow	left	j
Ambiguity	21.0	1946.0	red	0.58	[0,1]	risk	narrow	right	j
Ambiguity	22.0	4393.0	red	0.52	[0,1]	Ambiguous	narrow	left	j
Ambiguity	23.0	833.0	red	0.52	[0,1]	Ambiguous	narrow	left	j
Ambiguity	24.0	2213.0	red	0.56	[0,1]	risk	narrow	right	j
Ambiguity	25.0	1533.0	red	0.54	[0,1]	risk	narrow	left	f
Ambiguity	26.0	2003.0	red	0.51	[0,1]	risk	narrow	right	j
Ambiguity	27.0	1023.0	red	0.47	[0,1]	Ambiguous	narrow	right	f
Ambiguity	28.0	1897.0	red	0.5	[0,1]	Ambiguous	narrow	right	f
Ambiguity	29.0	998.0	red	0.51	[0,1]	Ambiguous	narrow	right	f
Ambiguity	30.0	1673.0	green	0.5	[0.25,0.75]	risk	skew	left	f
Ambiguity	31.0	4006.0	green	0.38	[0.25,0.75]	risk	skew	right	j
Ambiguity	32.0	2533.0	green	0.24	[0.25,0.75]	Ambiguous	skew	left	j
Ambiguity	33.0	2417.0	green	0.29	[0.25,0.75]	Ambiguous	skew	right	f
Ambiguity	34.0	1686.0	green	0.4	[0.25,0.75]	risk	skew	left	f
Ambiguity	35.0	1159.0	green	0.35	[0.25,0.75]	risk	skew	left	f
Ambiguity	36.0	1313.0	green	0.25	[0.25,0.75]	risk	skew	left	f
Ambiguity	37.0	2668.0	green	0.1	[0.25,0.75]	Ambiguous	skew	left	j
Ambiguity	38.0	1312.0	green	0.16	[0.25,0.75]	Ambiguous	skew	right	f
Ambiguity	39.0	1834.0	green	0.23	[0.25,0.75]	Ambiguous	skew	right	f
Ambiguity	40.0	1990.0	green	0.34	[0.25,0.75]	risk	skew	left	f
Ambiguity	41.0	2035.0	green	0.26	[0.25,0.75]	Ambiguous	skew	right	f
Ambiguity	42.0	1594.0	green	0.31	[0.25,0.75]	Ambiguous	skew	left	j
Ambiguity	43.0	2885.0	green	0.37	[0.25,0.75]	risk	skew	left	f
Ambiguity	44.0	2111.0	green	0.35	[0.25,0.75]	risk	skew	left	f
Ambiguity	45.0	2075.0	green	0.5	[0,1]	risk	skew	right	j
Ambiguity	46.0	1146.0	green	0.4	[0,1]	risk	skew	right	j
Ambiguity	47.0	2088.0	green	0.23	[0,1]	Ambiguous	skew	right	f
Ambiguity	48.0	1912.0	green	0.31	[0,1]	risk	skew	right	j
Ambiguity	49.0	1701.0	green	0.26	[0,1]	Ambiguous	skew	left	j
Ambiguity	50.0	1675.0	green	0.26	[0,1]	Ambiguous	skew	right	f
Ambiguity	51.0	968.0	green	0.29	[0,1]	Ambiguous	skew	right	f
Ambiguity	52.0	2219.0	green	0.3	[0,1]	Ambiguous	skew	left	j
Ambiguity	53.0	1349.0	green	0.37	[0,1]	risk	skew	right	j
Ambiguity	54.0	854.0	green	0.35	[0,1]	risk	skew	left	f
Ambiguity	55.0	1193.0	green	0.29	[0,1]	risk	skew	left	f
Ambiguity	56.0	1815.0	green	0.22	[0,1]	Ambiguous	skew	right	f
Ambiguity	57.0	917.0	green	0.25	[0,1]	Ambiguous	skew	right	f
Ambiguity	58.0	1224.0	green	0.27	[0,1]	Ambiguous	skew	left	j
Ambiguity	59.0	1485.0	green	0.32	[0,1]	risk	skew	left	f
Ambiguity	60.0	2280.0	blue	0.5	[0.25,0.75]	risk	wide	left	f
Ambiguity	61.0	2243.0	blue	0.41	[0.25,0.75]	risk	wide	right	j
Ambiguity	62.0	1897.0	blue	0.26	[0.25,0.75]	Ambiguous	wide	left	j
Ambiguity	63.0	1824.0	blue	0.34	[0.25,0.75]	risk	wide	right	j
Ambiguity	64.0	1651.0	blue	0.28	[0.25,0.75]	Ambiguous	wide	right	f
Ambiguity	65.0	2558.0	blue	0.3	[0.25,0.75]	Ambiguous	wide	right	f
Ambiguity	66.0	2179.0	blue	0.35	[0.25,0.75]	Ambiguous	wide	right	f
Ambiguity	67.0	1485.0	blue	0.41	[0.25,0.75]	risk	wide	left	f
Ambiguity	68.0	1738.0	blue	0.38	[0.25,0.75]	risk	wide	left	f
Ambiguity	69.0	1802.0	blue	0.36	[0.25,0.75]	risk	wide	left	f
Ambiguity	70.0	1348.0	blue	0.29	[0.25,0.75]	Ambiguous	wide	right	f
Ambiguity	71.0	1906.0	blue	0.28	[0.25,0.75]	Ambiguous	wide	right	f
Ambiguity	72.0	1836.0	blue	0.32	[0.25,0.75]	Ambiguous	wide	right	f
Ambiguity	73.0	2348.0	blue	0.36	[0.25,0.75]	risk	wide	right	j
Ambiguity	74.0	1725.0	blue	0.33	[0.25,0.75]	Ambiguous	wide	right	f
Ambiguity	75.0	1776.0	blue	0.5	[0,1]	risk	wide	right	j
Ambiguity	76.0	3310.0	blue	0.38	[0,1]	risk	wide	left	f
Ambiguity	77.0	2388.0	blue	0.23	[0,1]	Ambiguous	wide	left	j
Ambiguity	78.0	1769.0	blue	0.32	[0,1]	Ambiguous	wide	left	j
Ambiguity	79.0	1894.0	blue	0.45	[0,1]	risk	wide	left	f
Ambiguity	80.0	1960.0	blue	0.37	[0,1]	risk	wide	left	f
Ambiguity	81.0	1797.0	blue	0.29	[0,1]	Ambiguous	wide	right	f
Ambiguity	82.0	2205.0	blue	0.35	[0,1]	Ambiguous	wide	left	j
Ambiguity	83.0	1530.0	blue	0.42	[0,1]	risk	wide	left	f
Ambiguity	84.0	2833.0	blue	0.37	[0,1]	Ambiguous	wide	right	f
Ambiguity	85.0	2181.0	blue	0.38	[0,1]	risk	wide	left	f
Ambiguity	86.0	1683.0	blue	0.37	[0,1]	risk	wide	right	j
Ambiguity	87.0	1281.0	blue	0.37	[0,1]	risk	wide	right	j
Ambiguity	88.0	2067.0	blue	0.35	[0,1]	Ambiguous	wide	left	j
Ambiguity	89.0	1772.0	blue	0.34	[0,1]	Ambiguous	wide	right	f
